File: processed_data/12.5mA4msec-0.2mA16msec.csv
Capacity_mAh,Voltage_V
0.0,3.172118
0.129306,3.038633
0.258612,2.991021
0.387917,2.960296
0.517223,2.935726
0.646529,2.916469
0.775835,2.900232
0.90514,2.885064
1.03445,2.873863
1.16375,2.865827
1.29306,2.856623
1.42236,2.848733
1.55167,2.843078
1.68097,2.836379
1.81028,2.830115
1.93959,2.824857
2.06889,2.819951
2.1982,2.816005
2.3275,2.812565
2.45681,2.809083
2.58612,2.806775
2.71542,2.804285
2.84473,2.802728
2.97403,2.801105
3.10334,2.79961
3.23264,2.798691
3.36195,2.797875
3.49126,2.796984
3.62056,2.795218
3.74987,2.794472
3.87917,2.792909
4.00848,2.792598
4.13778,2.791592
4.26709,2.790562
4.3964,2.789993
4.5257,2.789058
4.65501,2.788404
4.78431,2.787638
4.91362,2.786704
5.04292,2.786104
5.17223,2.785583
5.30154,2.785086
5.43084,2.784825
5.56015,2.784012
5.68945,2.783691
5.81876,2.783319
5.94806,2.782646
6.07737,2.781731
6.20668,2.781261
6.33598,2.781038
6.46529,2.780684
6.59459,2.780234
6.7239,2.779869
6.8532,2.779421
6.98251,2.779096
7.11182,2.778952
7.24112,2.778395
7.37043,2.777853
7.49973,2.777543
7.62904,2.777244
7.75835,2.777111
7.88765,2.77648
8.01696,2.776371
8.14626,2.776322
8.27557,2.77651
8.40487,2.775951
8.53418,2.775803
8.66349,2.775437
8.79279,2.775071
8.9221,2.774987
9.0514,2.774518
9.18071,2.774716
9.31001,2.77359
9.43932,2.773731
9.56863,2.773661
9.69793,2.773539
9.82724,2.773164
9.95654,2.772897
10.0858,2.772525
10.2152,2.772419
10.3445,2.772077
10.4738,2.77195
10.6031,2.771578
10.7324,2.771848
10.8617,2.771292
10.991,2.771262
11.1203,2.77188
11.2496,2.771709
11.3789,2.771553
11.5082,2.771669
11.6375,2.770938
11.7668,2.770777
11.8961,2.77017
12.0254,2.770439
12.1547,2.770442
12.284,2.769747
12.4134,2.769732
12.5427,2.769706
12.672,2.769832
12.8013,2.769655
12.9306,2.769105
13.0599,2.76895
13.1892,2.769245
13.3185,2.768912
13.4478,2.768404
13.5771,2.768445
13.7064,2.768538
13.8357,2.768585
13.965,2.768304
14.0943,2.768815
14.2236,2.768005
14.3529,2.768344
14.4822,2.767869
14.6116,2.768425
14.7409,2.768107
14.8702,2.767484
14.9995,2.767709
15.1288,2.767935
15.2581,2.767754
15.3874,2.767841
15.5167,2.767695
15.646,2.767364
15.7753,2.767639
15.9046,2.767204
16.0339,2.767479
16.1632,2.76711
16.2925,2.767452
16.4218,2.767367
16.5511,2.76737
16.6804,2.766988
16.8097,2.767303
16.9391,2.767506
17.0684,2.767264
17.1977,2.766915
17.327,2.76701
17.4563,2.766707
17.5856,2.76702
17.7149,2.766528
17.8442,2.767015
17.9735,2.767331
18.1028,2.766917
18.2321,2.766175
18.3614,2.766935
18.4907,2.766329
18.62,2.766686
18.7493,2.766804
18.8786,2.766503
19.0079,2.766789
19.1373,2.767022
19.2666,2.766608
19.3959,2.766732
19.5252,2.766405
19.6545,2.766492
19.7838,2.766167
19.9131,2.766818
20.0424,2.766258
20.1717,2.766492
20.301,2.766396
20.4303,2.766086
20.5596,2.766126
20.6889,2.766593
20.8182,2.766562
20.9475,2.766416
21.0768,2.76586
21.2061,2.766341
21.3354,2.766411
21.4648,2.766416
21.5941,2.766595
21.7234,2.766317
21.8527,2.766174
21.982,2.766163
22.1113,2.765688
22.2406,2.765796
22.3699,2.765796
22.4992,2.765024
22.6285,2.764448
22.7578,2.763561
22.8871,2.76324
23.0164,2.763621
23.1457,2.763402
23.275,2.762895
23.4043,2.76367
23.5336,2.764891
23.663,2.764428
23.7923,2.765124
23.9216,2.765127
24.0509,2.765339
24.1802,2.765449
24.3095,2.765315
24.4388,2.7652
24.5681,2.765723
24.6974,2.765339
24.8267,2.765059
24.956,2.765293
25.0853,2.764833
25.2146,2.765611
25.3439,2.76474
25.4732,2.764978
25.6025,2.764079
25.7318,2.764344
25.8612,2.764339
25.9905,2.763907
26.1198,2.763597
26.2491,2.762913
26.3784,2.762567
26.5077,2.762602
26.637,2.762432
26.7663,2.76284
26.8956,2.762193
27.0249,2.761536
27.1542,2.760939
27.2835,2.760785
27.4128,2.760288
27.5421,2.760194
27.6714,2.760193
27.8007,2.7594
27.93,2.758868
28.0593,2.758326
28.1887,2.758502
28.318,2.758021
28.4473,2.757557
28.5766,2.757782
28.7059,2.757509
28.8352,2.757429
28.9645,2.757365
29.0938,2.757243
29.2231,2.756683
29.3524,2.755193
29.4817,2.755002
29.611,2.754954
29.7403,2.754744
29.8696,2.7545
29.9989,2.754491
30.1282,2.754591
30.2575,2.754596
30.3869,2.754287
30.5162,2.754126
30.6455,2.754112
30.7748,2.753491
30.9041,2.753424
31.0334,2.754132
31.1627,2.753539
31.292,2.752932
31.4213,2.752616
31.5506,2.752383
31.6799,2.75113
31.8092,2.750085
31.9385,2.749388
32.0678,2.747869
32.1971,2.746892
32.3264,2.746626
32.4557,2.74567
32.585,2.743285
32.7144,2.737253
32.8437,2.736555
32.973,2.732314
33.1023,2.73509
33.2316,2.738962
33.3609,2.73857
33.4902,2.738028
33.6195,2.736606
33.7488,2.735512
33.8781,2.73483
34.0074,2.734004
34.1367,2.733253
34.266,2.732052
34.3953,2.729467
34.5246,2.72521
34.6539,2.724662
34.7832,2.729588
34.9126,2.729676
35.0419,2.728461
35.1712,2.724009
35.3005,2.729138
35.4298,2.73004
35.5591,2.735549
35.6884,2.730702
35.8177,2.728084
35.947,2.72607
36.0763,2.723198
36.2056,2.724434
36.3349,2.715533
36.4642,2.714706
36.5935,2.718349
36.7228,2.714818
36.8521,2.724407
36.9814,2.708227
37.1108,2.713017
37.2401,2.711005
37.3694,2.717129
37.4987,2.706024
37.628,2.719497
37.7573,2.725578
37.8866,2.71699
38.0159,2.71981
38.1452,2.724083
38.2745,2.72445
38.4038,2.704887
38.5331,2.723716
38.6624,2.720731
38.7917,2.709956
38.921,2.709885
39.0503,2.721614
39.1796,2.722977
39.3089,2.71858
39.4383,2.710812
39.5676,2.694402
39.6969,2.697436
39.8262,2.693867
39.9555,2.697278
40.0848,2.709213
40.2141,2.711264
40.3434,2.715843
40.4727,2.70908
40.602,2.715701
40.7313,2.720823
40.8606,2.715343
40.9899,2.716792
41.1192,2.717718
41.2485,2.723596
41.3778,2.723018
41.5071,2.720975
41.6365,2.719632
41.7658,2.719744
41.8951,2.718543
42.0244,2.718084
42.1537,2.714592
42.283,2.711237
42.4123,2.71467
42.5416,2.716036
42.6709,2.714884
42.8002,2.712174
42.9295,2.708154
43.0588,2.716718
43.1881,2.719618
43.3174,2.719946
43.4467,2.72299
43.576,2.728025
43.7053,2.73011
43.8347,2.73034
43.964,2.730532
44.0933,2.73035
44.2226,2.729836
44.3519,2.730258
44.4812,2.730266
44.6105,2.730108
44.7398,2.73045
44.8691,2.730254
44.9984,2.730622
45.1277,2.729964
45.257,2.730026
45.3863,2.729614
45.5156,2.729376
45.6449,2.729079
45.7742,2.72998
45.9035,2.729242
46.0328,2.728956
46.1622,2.728784
46.2915,2.728965
46.4208,2.72861
46.5501,2.728444
46.6794,2.728406
46.8087,2.728753
46.938,2.728735
47.0673,2.728454
47.1966,2.728465
47.3259,2.728474
47.4552,2.728493
47.5845,2.728604
47.7138,2.728149
47.8431,2.727869
47.9724,2.727669
48.1017,2.72831
48.231,2.728225
48.3604,2.728112
48.4897,2.728015
48.619,2.728025
48.7483,2.728148
48.8776,2.728229
49.0069,2.727783
49.1362,2.727615
49.2655,2.727349
49.3948,2.727567
49.5241,2.727342
49.6534,2.727517
49.7827,2.727152
49.912,2.727025
50.0413,2.725619
50.1706,2.72549
50.2999,2.725068
50.4292,2.72488
50.5585,2.725052
50.6879,2.724931
50.8172,2.724789
50.9465,2.723663
51.0758,2.722687
51.2051,2.71966
51.3344,2.718447
51.4637,2.717076
51.593,2.717467
51.7223,2.717268
51.8516,2.717511
51.9809,2.716401
52.1102,2.714058
52.2395,2.712412
52.3688,2.710028
52.4981,2.709063
52.6274,2.707502
52.7567,2.707752
52.8861,2.707579
53.0154,2.707347
53.1447,2.706645
53.274,2.705695
53.4033,2.703578
53.5326,2.703335
53.6619,2.702226
53.7912,2.701109
53.9205,2.698478
54.0498,2.698673
54.1791,2.698993
54.3084,2.696866
54.4377,2.696568
54.567,2.694962
54.6963,2.696541
54.8256,2.696949
54.9549,2.697632
55.0843,2.697285
55.2136,2.697621
55.3429,2.696902
55.4722,2.697639
55.6015,2.69753
55.7308,2.69821
55.8601,2.697382
55.9894,2.697659
56.1187,2.69801
56.248,2.700931
56.3773,2.703816
56.5066,2.706245
56.6359,2.7068
56.7652,2.707748
56.8945,2.70857
57.0238,2.709083
57.1531,2.709661
57.2824,2.710393
57.4118,2.712389
57.5411,2.713063
57.6704,2.713825
57.7997,2.714367
57.929,2.714898
58.0583,2.715899
58.1876,2.717625
58.3169,2.718704
58.4462,2.718916
58.5755,2.71948
58.7048,2.719887
58.8341,2.72027
58.9634,2.7208
59.0927,2.722292
59.222,2.724344
59.3513,2.725121
59.4806,2.724751
59.61,2.72598
59.7393,2.72605
59.8686,2.726134
59.9979,2.725421
60.1272,2.726184
60.2565,2.726048
60.3858,2.725624
60.5151,2.725878
60.6444,2.725556
60.7737,2.725186
60.903,2.724898
61.0323,2.724635
61.1616,2.724528
61.2909,2.724293
61.4202,2.724564
61.5495,2.723575
61.6788,2.723738
61.8081,2.722906
61.9375,2.7228
62.0668,2.721872
62.1961,2.721792
62.3254,2.72209
62.4547,2.721866
62.584,2.721364
62.7133,2.720093
62.8426,2.71899
62.9719,2.719143
63.1012,2.71893
63.2305,2.71829
63.3598,2.718004
63.4891,2.717315
63.6184,2.717534
63.7477,2.716762
63.877,2.716583
64.0063,2.716314
64.1357,2.716256
64.265,2.7157
64.3943,2.716035
64.5236,2.715412
64.6529,2.715531
64.7822,2.714766
64.9115,2.715311
65.0408,2.715442
65.1701,2.714131
65.2994,2.713982
65.4287,2.713744
65.558,2.713314
65.6873,2.713047
65.8166,2.713017
65.9459,2.712279
66.0752,2.71135
66.2045,2.710436
66.3339,2.710104
66.4632,2.710265
66.5925,2.709852
66.7218,2.70978
66.8511,2.689022
66.9804,2.688213
67.1097,2.690749
67.239,2.691064
67.3683,2.690358
67.4976,2.69034
67.6269,2.690732
67.7562,2.690414
67.8855,2.68926
68.0148,2.689775
68.1441,2.689428
68.2734,2.689491
68.4027,2.703298
68.532,2.703225
68.6614,2.703008
68.7907,2.702458
68.92,2.70231
69.0493,2.701915
69.1786,2.702131
69.3079,2.702027
69.4372,2.701298
69.5665,2.701712
69.6958,2.687198
69.8251,2.689602
69.9544,2.694883
70.0837,2.694523
70.213,2.692513
70.3423,2.694884
70.4716,2.694594
70.6009,2.694486
70.7302,2.694909
70.8596,2.694295
70.9889,2.694052
71.1182,2.693638
71.2475,2.693011
71.3768,2.693257
71.5061,2.692531
71.6354,2.693185
71.7647,2.692294
71.894,2.692387
72.0233,2.691887
72.1526,2.69214
72.2819,2.691451
72.4112,2.690927
72.5405,2.69151
72.6698,2.691376
72.7991,2.691142
72.9284,2.690815
73.0578,2.690526
73.1871,2.691197
73.3164,2.690747
73.4457,2.690306
73.575,2.689633
73.7043,2.689592
73.8336,2.688711
73.9629,2.68887
74.0922,2.688307
74.2215,2.688427
74.3508,2.688419
74.4801,2.687765
74.6094,2.687287
74.7387,2.687006
74.868,2.686448
74.9973,2.686473
75.1266,2.686286
75.2559,2.686049
75.3853,2.685544
75.5146,2.684995
75.6439,2.685431
75.7732,2.684869
75.9025,2.684343
76.0318,2.683877
76.1611,2.683737
76.2904,2.683964
76.4197,2.683908
76.549,2.683566
76.6783,2.683176
76.8076,2.682263
76.9369,2.682483
77.0662,2.682715
77.1955,2.681851
77.3248,2.682093
77.4541,2.68145
77.5835,2.681767
77.7128,2.6817
77.8421,2.681966
77.9714,2.681094
78.1007,2.680658
78.23,2.680665
78.3593,2.680402
78.4886,2.680189
78.6179,2.680408
78.7472,2.680184
78.8765,2.679605
79.0058,2.677706
79.1351,2.674102
79.2644,2.666598
79.3937,2.673342
79.523,2.675832
79.6523,2.675567
79.7816,2.674534
79.911,2.673143
80.0403,2.672773
80.1696,2.671684
80.2989,2.67083
80.4282,2.672105
80.5575,2.672887
80.6868,2.672643
80.8161,2.673435
80.9454,2.673465
81.0747,2.674013
81.204,2.673075
81.3333,2.671278
81.4626,2.668331
81.5919,2.666112
81.7212,2.664602
81.8505,2.663248
81.9798,2.662497
82.1092,2.661546
82.2385,2.661462
82.3678,2.657857
82.4971,2.65857
82.6264,2.657597
82.7557,2.655893
82.885,2.652744
83.0143,2.654665
83.1436,2.659262
83.2729,2.65917
83.4022,2.660704
83.5315,2.662618
83.6608,2.661022
83.7901,2.659828
83.9194,2.654045
84.0487,2.659649
84.178,2.660696
84.3074,2.660219
84.4367,2.659413
84.566,2.656466
84.6953,2.658294
84.8246,2.661612
84.9539,2.662796
85.0832,2.662502
85.2125,2.662112
85.3418,2.663623
85.4711,2.663606
85.6004,2.662369
85.7297,2.660571
85.859,2.656862
85.9883,2.651297
86.1176,2.65951
86.2469,2.657606
86.3762,2.656229
86.5055,2.662533
86.6349,2.664474
86.7642,2.665042
86.8935,2.665464
87.0228,2.665758
87.1521,2.665774
87.2814,2.665612
87.4107,2.665347
87.54,2.665189
87.6693,2.665814
87.7986,2.666904
87.9279,2.667016
88.0572,2.66671
88.1865,2.667677
88.3158,2.66783
88.4451,2.666448
88.5744,2.664489
88.7037,2.662533
88.8331,2.662377
88.9624,2.665343
89.0917,2.665075
89.221,2.665904
89.3503,2.665843
89.4796,2.665772
89.6089,2.665768
89.7382,2.665472
89.8675,2.665314
89.9968,2.664494
90.1261,2.664305
90.2554,2.664136
90.3847,2.663444
90.514,2.663231
90.6433,2.66321
90.7726,2.662806
90.9019,2.662691
91.0313,2.66156
91.1606,2.660541
91.2899,2.658399
91.4192,2.654089
91.5485,2.657728
91.6778,2.656518
91.8071,2.657207
91.9364,2.657699
92.0657,2.656722
92.195,2.655787
92.3243,2.655909
92.4536,2.657073
92.5829,2.657186
92.7122,2.657308
92.8415,2.653855
92.9708,2.652354
93.1001,2.6513
93.2294,2.649755
93.3588,2.648714
93.4881,2.648867
93.6174,2.647303
93.7467,2.646792
93.876,2.646597
94.0053,2.646695
94.1346,2.646248
94.2639,2.644608
94.3932,2.642061
94.5225,2.639173
94.6518,2.636214
94.7811,2.63804
94.9104,2.634886
95.0397,2.633657
95.169,2.612671
95.2983,2.615862
95.4276,2.630488
95.557,2.640224
95.6863,2.63737
95.8156,2.639538
95.9449,2.640039
96.0742,2.639526
96.2035,2.639423
96.3328,2.639653
96.4621,2.640483
96.5914,2.640947
96.7207,2.641503
96.85,2.641978
96.9793,2.642043
97.1086,2.64201
97.2379,2.641662
97.3672,2.641002
97.4965,2.640423
97.6258,2.639575
97.7551,2.638727
97.8845,2.637757
98.0138,2.636029
98.1431,2.634634
98.2724,2.633123
98.4017,2.631887
98.531,2.630913
98.6603,2.630312
98.7896,2.630499
98.9189,2.63034
99.0482,2.629952
99.1775,2.629259
99.3068,2.62917
99.4361,2.62793
99.5654,2.627841
99.6947,2.626857
99.824,2.626329
99.9533,2.62616
100.083,2.625598
100.212,2.625416
100.341,2.625954
100.471,2.62412
100.6,2.624531
100.729,2.622588
100.858,2.622939
100.988,2.624234
101.117,2.624084
101.246,2.62382
101.376,2.6237
101.505,2.624664
101.634,2.627625
101.764,2.626631
101.893,2.622711
102.022,2.62021
102.152,2.61678
102.281,2.613219
102.41,2.610022
102.539,2.613813
102.669,2.604993
102.798,2.607254
102.927,2.611442
103.057,2.614199
103.186,2.614068
103.315,2.615563
103.445,2.614246
103.574,2.613075
103.703,2.615878
103.833,2.615019
103.962,2.614622
104.091,2.614211
104.22,2.612667
104.35,2.611698
104.479,2.612262
104.608,2.610402
104.738,2.601232
104.867,2.600633
104.996,2.604095
105.126,2.608046
105.255,2.609398
105.384,2.605011
105.513,2.608371
105.643,2.610594
105.772,2.607127
105.901,2.609185
106.031,2.608242
106.16,2.607419
106.289,2.60641
106.419,2.605991
106.548,2.607288
106.677,2.607387
106.807,2.604599
106.936,2.602138
107.065,2.601391
107.194,2.601806
107.324,2.601313
107.453,2.600767
107.582,2.605248
107.712,2.603901
107.841,2.606259
107.97,2.605874
108.1,2.607389
108.229,2.606268
108.358,2.608635
108.488,2.609581
108.617,2.60919
108.746,2.608628
108.875,2.608366
109.005,2.608607
109.134,2.609157
109.263,2.608564
109.393,2.610051
109.522,2.61182
109.651,2.613591
109.781,2.613246
109.91,2.613003
110.039,2.612658
110.169,2.61181
110.298,2.610965
110.427,2.61093
110.556,2.610802
110.686,2.609412
110.815,2.60891
110.944,2.607898
111.074,2.607342
111.203,2.606868
111.332,2.606682
111.462,2.606498
111.591,2.605788
111.72,2.605558
111.849,2.604804
111.979,2.604164
112.108,2.603678
112.237,2.603426
112.367,2.603451
112.496,2.602213
112.625,2.602024
112.755,2.601836
112.884,2.60163
113.013,2.600749
113.143,2.600585
113.272,2.600141
113.401,2.5995
113.53,2.598586
113.66,2.597537
113.789,2.596804
113.918,2.595913
114.048,2.592419
114.177,2.589221
114.306,2.588537
114.436,2.588796
114.565,2.587983
114.694,2.587409
114.824,2.587577
114.953,2.587466
115.082,2.584616
115.211,2.581448
115.341,2.578039
115.47,2.583567
115.599,2.583923
115.729,2.585811
115.858,2.583989
115.987,2.582548
116.117,2.581827
116.246,2.580982
116.375,2.582112
116.504,2.583263
116.634,2.584692
116.763,2.584509
116.892,2.586038
117.022,2.586403
117.151,2.58583
117.28,2.585071
117.41,2.584849
117.539,2.584161
117.668,2.58339
117.798,2.582677
117.927,2.581884
118.056,2.582205
118.185,2.581735
118.315,2.580698
118.444,2.580323
118.573,2.580129
118.703,2.580209
118.832,2.580286
118.961,2.57955
119.091,2.579599
119.22,2.579517
119.349,2.579145
119.479,2.579134
119.608,2.579041
119.737,2.57983
119.866,2.579393
119.996,2.579303
120.125,2.577421
120.254,2.573397
120.384,2.572899
120.513,2.57248
120.642,2.578031
120.772,2.577266
120.901,2.575992
121.03,2.560442
121.159,2.554297
121.289,2.561595
121.418,2.555231
121.547,2.575324
121.677,2.572596
121.806,2.572223
121.935,2.569011
122.065,2.573853
122.194,2.574121
122.323,2.573981
122.453,2.573853
122.582,2.574322
122.711,2.573491
122.84,2.572466
122.97,2.57279
123.099,2.572451
123.228,2.571532
123.358,2.571548
123.487,2.571317
123.616,2.571799
123.746,2.570889
123.875,2.573147
124.004,2.572455
124.134,2.572194
124.263,2.571928
124.392,2.571256
124.521,2.570697
124.651,2.570078
124.78,2.56996
124.909,2.56974
125.039,2.569397
125.168,2.569369
125.297,2.568652
125.427,2.56812
125.556,2.567761
125.685,2.567009
125.814,2.566606
125.944,2.566573
126.073,2.566259
126.202,2.565114
126.332,2.565143
126.461,2.564358
126.59,2.564162
126.72,2.563799
126.849,2.563801
126.978,2.563382
127.108,2.563804
127.237,2.564131
127.366,2.564003
127.495,2.563626
127.625,2.56252
127.754,2.562121
127.883,2.561295
128.013,2.560569
128.142,2.559664
128.271,2.559272
128.401,2.5584
128.53,2.558205
128.659,2.557112
128.789,2.556451
128.918,2.556262
129.047,2.55523
129.176,2.554618
129.306,2.554051
129.435,2.554031
129.564,2.553903
129.694,2.552341
129.823,2.552317
129.952,2.551281
130.082,2.550792
130.211,2.550222
130.34,2.549402
130.47,2.548731
130.599,2.548477
130.728,2.547588
130.857,2.546538
130.987,2.546328
131.116,2.545243
131.245,2.544593
131.375,2.54383
131.504,2.543513
131.633,2.542984
131.763,2.542345
131.892,2.541667
132.021,2.541133
132.15,2.540514
132.28,2.540053
132.409,2.539242
132.538,2.538795
132.668,2.538259
132.797,2.537614
132.926,2.536952
133.056,2.536244
133.185,2.535985
133.314,2.535134
133.444,2.534626
133.573,2.533981
133.702,2.533677
133.831,2.533122
133.961,2.532624
134.09,2.531747
134.219,2.530664
134.349,2.530362
134.478,2.529951
134.607,2.529272
134.737,2.528799
134.866,2.528156
134.995,2.527588
135.125,2.526935
135.254,2.526138
135.383,2.525704
135.512,2.525756
135.642,2.524893
135.771,2.524175
135.9,2.523357
136.03,2.522532
136.159,2.521941
136.288,2.52148
136.418,2.520849
136.547,2.520092
136.676,2.519619
136.805,2.519104
136.935,2.51876
137.064,2.517858
137.193,2.517734
137.323,2.516951
137.452,2.516016
137.581,2.515151
137.711,2.514766
137.84,2.514271
137.969,2.514315
138.099,2.512672
138.228,2.512076
138.357,2.51149
138.486,2.511262
138.616,2.510769
138.745,2.50996
138.874,2.508903
139.004,2.508643
139.133,2.507755
139.262,2.507109
139.392,2.506756
139.521,2.50591
139.65,2.505482
139.78,2.50387
139.909,2.503599
140.038,2.503066
140.167,2.502465
140.297,2.501956
140.426,2.501226
140.555,2.500568
140.685,2.499826
140.814,2.499317
140.943,2.497756
141.073,2.497046
141.202,2.496413
141.331,2.496052
141.46,2.495227
141.59,2.494231
141.719,2.493537
141.848,2.492814
141.978,2.491794
142.107,2.491299
142.236,2.490599
142.366,2.490053
142.495,2.4891
142.624,2.488506
142.754,2.487828
142.883,2.486295
143.012,2.486382
143.141,2.485371
143.271,2.485004
143.4,2.484121
143.529,2.483485
143.659,2.482656
143.788,2.481939
143.917,2.480736
144.047,2.480161
144.176,2.480095
144.305,2.479305
144.435,2.47828
144.564,2.477758
144.693,2.477008
144.822,2.476098
144.952,2.475161
145.081,2.474097
145.21,2.473015
145.34,2.471725
145.469,2.471436
145.598,2.470132
145.728,2.469183
145.857,2.468392
145.986,2.467651
146.116,2.466947
146.245,2.465878
146.374,2.464999
146.503,2.46418
146.633,2.463218
146.762,2.462279
146.891,2.460972
147.021,2.460193
147.15,2.459197
147.279,2.458234
147.409,2.457094
147.538,2.45605
147.667,2.455616
147.796,2.454698
147.926,2.453583
148.055,2.452409
148.184,2.451663
148.314,2.450772
148.443,2.44987
148.572,2.448887
148.702,2.447725
148.831,2.446815
148.96,2.445803
149.09,2.444258
149.219,2.443677
149.348,2.442773
149.477,2.441887
149.607,2.440887
149.736,2.439132
149.865,2.438638
149.995,2.437744
150.124,2.43699
150.253,2.436126
150.383,2.434974
150.512,2.433657
150.641,2.432953
150.771,2.431286
150.9,2.43101
151.029,2.429368
151.158,2.428471
151.288,2.427588
151.417,2.426387
151.546,2.42491
151.676,2.42425
151.805,2.423032
151.934,2.421635
152.064,2.420689
152.193,2.418846
152.322,2.418474
152.451,2.41702
152.581,2.415952
152.71,2.415613
152.839,2.414894
152.969,2.413296
153.098,2.412437
153.227,2.411648
153.357,2.410648
153.486,2.409776
153.615,2.40869
153.745,2.407865
153.874,2.406519
154.003,2.405822
154.132,2.404997
154.262,2.404073
154.391,2.402938
154.52,2.401945
154.65,2.400745
154.779,2.399753
154.908,2.398405
155.038,2.397421
155.167,2.396272
155.296,2.395014
155.426,2.394642
155.555,2.393482
155.684,2.391879
155.813,2.391083
155.943,2.39018
156.072,2.388723
156.201,2.386982
156.331,2.385944
156.46,2.385093
156.589,2.383592
156.719,2.382816
156.848,2.382076
156.977,2.381546
157.106,2.380731
157.236,2.378661
157.365,2.377578
157.494,2.375688
157.624,2.374667
157.753,2.3734
157.882,2.372697
158.012,2.371413
158.141,2.370812
158.27,2.369424
158.4,2.368229
158.529,2.367051
158.658,2.365825
158.787,2.364841
158.917,2.363954
159.046,2.362677
159.175,2.361852
159.305,2.360404
159.434,2.359086
159.563,2.358135
159.693,2.357183
159.822,2.355272
159.951,2.354419
160.081,2.352797
160.21,2.351716
160.339,2.350183
160.468,2.349151
160.598,2.348496
160.727,2.34692
160.856,2.34614
160.986,2.344937
161.115,2.343337
161.244,2.341949
161.374,2.341007
161.503,2.33943
161.632,2.338337
161.761,2.337626
161.891,2.335797
162.02,2.334841
162.149,2.333712
162.279,2.332668
162.408,2.331461
162.537,2.329765
162.667,2.328594
162.796,2.327663
162.925,2.327027
163.055,2.32475
163.184,2.323742
163.313,2.321988
163.442,2.320152
163.572,2.319265
163.701,2.31774
163.83,2.316302
163.96,2.314646
164.089,2.313463
164.218,2.312326
164.348,2.310945
164.477,2.309002
164.606,2.308079
164.736,2.305756
164.865,2.304607
164.994,2.30312
165.123,2.301578
165.253,2.299713
165.382,2.298394
165.511,2.297081
165.641,2.295879
165.77,2.294478
165.899,2.293774
166.029,2.291955
166.158,2.290646
166.287,2.289587
166.417,2.288677
166.546,2.286632
166.675,2.285131
166.804,2.284045
166.934,2.28282
167.063,2.282177
167.192,2.280275
167.322,2.279526
167.451,2.278141
167.58,2.276545
167.71,2.27473
167.839,2.27403
167.968,2.272331
168.097,2.270393
168.227,2.269584
168.356,2.268301
168.485,2.266631
168.615,2.264863
168.744,2.263592
168.873,2.261752
169.003,2.259947
169.132,2.258713
169.261,2.256729
169.391,2.255923
169.52,2.254057
169.649,2.251998
169.778,2.250538
169.908,2.248704
170.037,2.247507
170.166,2.245951
170.296,2.244023
170.425,2.243135
170.554,2.240943
170.684,2.240007
170.813,2.23844
170.942,2.23702
171.072,2.234911
171.201,2.233715
171.33,2.231967
171.459,2.229997
171.589,2.229252
171.718,2.227264
171.847,2.225417
171.977,2.222927
172.106,2.220954
172.235,2.219438
172.365,2.218053
172.494,2.215952
172.623,2.21397
172.752,2.212438
172.882,2.210857
173.011,2.209212
173.14,2.206703
173.27,2.204826
173.399,2.203073
173.528,2.20164
173.658,2.19961
173.787,2.197886
173.916,2.196596
174.046,2.194755
174.175,2.193034
174.304,2.190769
174.433,2.189009
174.563,2.188225
174.692,2.18594
174.821,2.183747
174.951,2.182161
175.08,2.180372
175.209,2.178047
175.339,2.17607
175.468,2.17466
175.597,2.172882
175.727,2.171378
175.856,2.170312
175.985,2.168029
176.114,2.169005
176.244,2.169806
176.373,2.167685
176.502,2.166804
176.632,2.16608
176.761,2.165227
176.89,2.163746
177.02,2.164458
177.149,2.162138
177.278,2.16156
177.407,2.161539
177.537,2.159873
177.666,2.158308
177.795,2.154728
177.925,2.152581
178.054,2.152541
178.183,2.148635
178.313,2.146368
178.442,2.145358
178.571,2.143511
178.701,2.141829
178.83,2.139086
178.959,2.137438
179.088,2.134933
179.218,2.13213
179.347,2.129653
179.476,2.127855
179.606,2.125673
179.735,2.123053
179.864,2.12129
179.994,2.119194
180.123,2.116192
180.252,2.113539
180.382,2.111057
180.511,2.108508
180.64,2.106404
180.769,2.103101
180.899,2.099316
181.028,2.09698
181.157,2.093788
181.287,2.090747
181.416,2.087203
181.545,2.084619
181.675,2.081884
181.804,2.079202
181.933,2.077922
182.063,2.075845
182.192,2.074028
182.321,2.072634
182.45,2.070738
182.58,2.064239
182.709,2.066571
182.838,2.068324
182.968,2.064426
183.097,2.062642
183.226,2.059463
183.356,2.054384
183.485,2.051203
183.614,2.042418
183.743,2.038011
183.873,2.038045
184.002,2.035909
184.131,2.031693
184.261,2.028142
184.39,2.024959
184.519,2.020221
184.649,2.016821
184.778,2.015984
184.907,2.010824
185.037,2.005517
185.166,2.013394
185.295,2.012122
185.424,2.009696
185.554,2.007351
185.683,2.005171
185.812,2.003528
185.942,2.002796
186.071,2.001644
186.2,2.000764
186.33,1.999343
186.459,1.990984
186.588,1.993677
186.718,1.996507
186.847,1.998029
186.976,1.99938
187.105,1.999783
187.235,2.001605
187.364,2.002595
187.493,2.005183
187.623,2.004817
187.752,2.005748
187.881,2.006212
188.011,2.00718
188.14,2.008521
188.269,2.008752
188.398,2.008303
188.528,2.009387
188.657,2.010778
188.786,2.009994
188.916,2.010763
189.045,2.011098
189.06,2.011187