File: processed_data/30.0mA1msec-0.2mA29msec.csv
Capacity_mAh,Voltage_V
0.0,3.242666
0.0580093,3.154084
0.116019,3.115069
0.174028,3.086808
0.232037,3.064729
0.290047,3.047344
0.348056,3.032836
0.406065,3.019919
0.464075,3.008544
0.522084,2.998024
0.580093,2.988506
0.638103,2.979448
0.696112,2.971901
0.754122,2.96443
0.812131,2.958381
0.87014,2.951789
0.92815,2.945834
0.986159,2.940475
1.04417,2.935529
1.10218,2.930884
1.16019,2.926428
1.2182,2.922704
1.27621,2.918841
1.33421,2.915051
1.39222,2.911795
1.45023,2.907917
1.50824,2.904761
1.56625,2.901821
1.62426,2.898518
1.68227,2.896626
1.74028,2.89453
1.79829,2.893214
1.8563,2.891726
1.91431,2.889073
1.97232,2.88677
2.03033,2.884667
2.08834,2.883156
2.14635,2.881531
2.20436,2.87984
2.26236,2.877919
2.32037,2.876187
2.37838,2.87517
2.43639,2.873872
2.4944,2.873204
2.55241,2.872262
2.61042,2.870625
2.66843,2.869603
2.72644,2.868207
2.78445,2.867662
2.84246,2.865964
2.90047,2.866412
2.95848,2.865845
3.01649,2.864858
3.0745,2.864516
3.1325,2.863769
3.19051,2.86417
3.24852,2.863546
3.30653,2.862877
3.36454,2.862804
3.42255,2.861266
3.48056,2.861314
3.53857,2.861719
3.59658,2.862039
3.65459,2.861146
3.7126,2.861305
3.77061,2.860905
3.82862,2.860678
3.88663,2.860513
3.94464,2.860071
4.00264,2.860443
4.06065,2.860371
4.11866,2.859863
4.17667,2.859736
4.23468,2.859708
4.29269,2.859219
4.3507,2.859223
4.40871,2.859181
4.46672,2.859037
4.52473,2.858847
4.58274,2.858781
4.64075,2.858849
4.69876,2.85971
4.75677,2.858675
4.81478,2.858044
4.87279,2.857804
4.93079,2.857808
4.9888,2.857154
5.04681,2.857373
5.10482,2.85698
5.16283,2.857174
5.22084,2.856929
5.27885,2.85697
5.33686,2.856947
5.39487,2.856606
5.45288,2.856827
5.51089,2.855919
5.5689,2.856025
5.62691,2.855983
5.68492,2.856333
5.74293,2.85636
5.80093,2.856442
5.85894,2.85619
5.91695,2.855575
5.97496,2.856134
6.03297,2.856113
6.09098,2.855388
6.14899,2.855454
6.207,2.855385
6.26501,2.855537
6.32302,2.855474
6.38103,2.854998
6.43904,2.85495
6.49705,2.854576
6.55506,2.854747
6.61307,2.854125
6.67107,2.854544
6.72908,2.854381
6.78709,2.854322
6.8451,2.854663
6.90311,2.854453
6.96112,2.854981
7.01913,2.85451
7.07714,2.855216
7.13515,2.85514
7.19316,2.85459
7.25117,2.854576
7.30918,2.854618
7.36719,2.853806
7.4252,2.853795
7.48321,2.854106
7.54122,2.853951
7.59922,2.854252
7.65723,2.854289
7.71524,2.853998
7.77325,2.854671
7.83126,2.854242
7.88927,2.854161
7.94728,2.854219
8.00529,2.853812
8.0633,2.853951
8.12131,2.853797
8.17932,2.854275
8.23733,2.854046
8.29534,2.853704
8.35335,2.854311
8.41136,2.853759
8.46936,2.854085
8.52737,2.854113
8.58538,2.853968
8.64339,2.853796
8.7014,2.854051
8.75941,2.854117
8.81742,2.854097
8.87543,2.853941
8.93344,2.854257
8.99145,2.854445
9.04946,2.854261
9.10747,2.853936
9.16548,2.854115
9.22349,2.854007
9.2815,2.854246
9.3395,2.853977
9.39751,2.853577
9.45552,2.853969
9.51353,2.853947
9.57154,2.853716
9.62955,2.853676
9.68756,2.853731
9.74557,2.853752
9.80358,2.85421
9.86159,2.854285
9.9196,2.855102
9.97761,2.85469
10.0356,2.854851
10.0936,2.854478
10.1516,2.854501
10.2096,2.85395
10.2677,2.854237
10.3257,2.853853
10.3837,2.853337
10.4417,2.853855
10.4997,2.853884
10.5577,2.853686
10.6157,2.853424
10.6737,2.853348
10.7317,2.853249
10.7897,2.853541
10.8477,2.853257
10.9058,2.853339
10.9638,2.853127
11.0218,2.85308
11.0798,2.853358
11.1378,2.852562
11.1958,2.852829
11.2538,2.852892
11.3118,2.852951
11.3698,2.852831
11.4278,2.853461
11.4859,2.853198
11.5439,2.853117
11.6019,2.853338
11.6599,2.853133
11.7179,2.853679
11.7759,2.852871
11.8339,2.85288
11.8919,2.852549
11.9499,2.852417
12.0079,2.852589
12.0659,2.852879
12.124,2.852301
12.182,2.852683
12.24,2.852635
12.298,2.852392
12.356,2.85299
12.414,2.852703
12.472,2.852366
12.53,2.852048
12.588,2.851727
12.646,2.852292
12.704,2.852066
12.7621,2.851699
12.8201,2.852279
12.8781,2.852463
12.9361,2.85237
12.9941,2.852649
13.0521,2.852125
13.1101,2.852406
13.1681,2.851837
13.2261,2.852469
13.2841,2.851973
13.3421,2.851824
13.4002,2.851507
13.4582,2.8515
13.5162,2.851006
13.5742,2.850737
13.6322,2.85061
13.6902,2.850738
13.7482,2.850919
13.8062,2.850602
13.8642,2.850485
13.9222,2.851051
13.9803,2.85084
14.0383,2.850641
14.0963,2.851023
14.1543,2.850987
14.2123,2.851189
14.2703,2.851707
14.3283,2.851806
14.3863,2.851971
14.4443,2.851704
14.5023,2.851474
14.5603,2.851776
14.6184,2.852134
14.6764,2.852198
14.7344,2.851822
14.7924,2.85244
14.8504,2.851654
14.9084,2.852158
14.9664,2.851651
15.0244,2.851575
15.0824,2.851506
15.1404,2.851675
15.1984,2.851568
15.2565,2.851352
15.3145,2.851411
15.3725,2.852012
15.4305,2.851913
15.4885,2.851654
15.5465,2.851874
15.6045,2.851706
15.6625,2.851609
15.7205,2.851454
15.7785,2.851717
15.8366,2.852172
15.8946,2.852416
15.9526,2.851631
16.0106,2.851785
16.0686,2.851629
16.1266,2.851055
16.1846,2.851268
16.2426,2.851559
16.3006,2.851439
16.3586,2.851158
16.4166,2.850834
16.4747,2.851666
16.5327,2.851289
16.5907,2.851531
16.6487,2.851747
16.7067,2.85183
16.7647,2.852344
16.8227,2.852335
16.8807,2.851942
16.9387,2.851635
16.9967,2.851881
17.0547,2.852121
17.1128,2.852031
17.1708,2.851128
17.2288,2.851573
17.2868,2.851555
17.3448,2.851881
17.4028,2.852366
17.4608,2.852195
17.5188,2.852144
17.5768,2.852183
17.6348,2.852036
17.6929,2.852349
17.7509,2.852225
17.8089,2.852679
17.8669,2.851831
17.9249,2.85182
17.9829,2.852549
18.0409,2.853005
18.0989,2.852542
18.1569,2.852479
18.2149,2.852485
18.2729,2.852488
18.331,2.853138
18.389,2.85271
18.447,2.85255
18.505,2.85287
18.563,2.852639
18.621,2.852975
18.679,2.851954
18.737,2.852461
18.795,2.852511
18.853,2.851907
18.911,2.852221
18.9691,2.852409
19.0271,2.853092
19.0851,2.853485
19.1431,2.853602
19.2011,2.853324
19.2591,2.853726
19.3171,2.852879
19.3751,2.853435
19.4331,2.853629
19.4911,2.853806
19.5492,2.854089
19.6072,2.853709
19.6652,2.853594
19.7232,2.853498
19.7812,2.853775
19.8392,2.853748
19.8972,2.854049
19.9552,2.853602
20.0132,2.853525
20.0712,2.853701
20.1292,2.853969
20.1873,2.854108
20.2453,2.85338
20.3033,2.853607
20.3613,2.853062
20.4193,2.853076
20.4773,2.852732
20.5353,2.852668
20.5933,2.852904
20.6513,2.853272
20.7093,2.851955
20.7673,2.852411
20.8254,2.85291
20.8834,2.853111
20.9414,2.853128
20.9994,2.853649
21.0574,2.853532
21.1154,2.853695
21.1734,2.853711
21.2314,2.853932
21.2894,2.853498
21.3474,2.853628
21.4054,2.853937
21.4635,2.854059
21.5215,2.854235
21.5795,2.854083
21.6375,2.854174
21.6955,2.853772
21.7535,2.853566
21.8115,2.853812
21.8695,2.854012
21.9275,2.853754
21.9855,2.853977
22.0436,2.853822
22.1016,2.854546
22.1596,2.854404
22.2176,2.854412
22.2756,2.853951
22.3336,2.854131
22.3916,2.854015
22.4496,2.854005
22.5076,2.853369
22.5656,2.853559
22.6236,2.853529
22.6817,2.854145
22.7397,2.854181
22.7977,2.853548
22.8557,2.853838
22.9137,2.854053
22.9717,2.854563
23.0297,2.854493
23.0877,2.854001
23.1457,2.853785
23.2037,2.854184
23.2617,2.853852
23.3198,2.853865
23.3778,2.854138
23.4358,2.854346
23.4938,2.85426
23.5518,2.853406
23.6098,2.853755
23.6678,2.853729
23.7258,2.85469
23.7838,2.854597
23.8418,2.854328
23.8999,2.854293
23.9579,2.854146
24.0159,2.854393
24.0739,2.85425
24.1319,2.854135
24.1899,2.854727
24.2479,2.854025
24.3059,2.853778
24.3639,2.854568
24.4219,2.854631
24.4799,2.854599
24.538,2.854357
24.596,2.854183
24.654,2.85421
24.712,2.853908
24.77,2.854663
24.828,2.854127
24.886,2.853985
24.944,2.854337
25.002,2.854116
25.06,2.853577
25.118,2.853657
25.1761,2.853703
25.2341,2.852686
25.2921,2.854215
25.3501,2.853567
25.4081,2.853153
25.4661,2.852812
25.5241,2.853514
25.5821,2.853017
25.6401,2.853528
25.6981,2.854161
25.7562,2.853585
25.8142,2.853456
25.8722,2.852846
25.9302,2.852925
25.9882,2.853325
26.0462,2.853207
26.1042,2.853252
26.1622,2.852899
26.2202,2.853138
26.2782,2.852819
26.3362,2.85328
26.3943,2.852867
26.4523,2.853089
26.5103,2.853036
26.5683,2.853295
26.6263,2.853907
26.6843,2.853728
26.7423,2.853623
26.8003,2.854104
26.8583,2.854082
26.9163,2.853819
26.9743,2.853832
27.0324,2.8539
27.0904,2.854033
27.1484,2.853609
27.2064,2.853524
27.2644,2.853614
27.3224,2.854054
27.3804,2.853905
27.4384,2.853515
27.4964,2.854007
27.5544,2.854389
27.6124,2.854054
27.6705,2.853895
27.7285,2.854114
27.7865,2.854467
27.8445,2.854227
27.9025,2.854454
27.9605,2.854525
28.0185,2.854795
28.0765,2.854899
28.1345,2.854218
28.1925,2.854742
28.2506,2.854853
28.3086,2.854764
28.3666,2.854978
28.4246,2.855237
28.4826,2.855068
28.5406,2.854893
28.5986,2.854936
28.6566,2.854146
28.7146,2.854683
28.7726,2.854939
28.8306,2.854817
28.8887,2.853587
28.9467,2.853997
29.0047,2.85357
29.0627,2.853966
29.1207,2.853599
29.1787,2.853763
29.2367,2.85375
29.2947,2.853589
29.3527,2.852975
29.4107,2.853091
29.4687,2.853008
29.5268,2.853718
29.5848,2.853407
29.6428,2.853601
29.7008,2.853863
29.7588,2.853682
29.8168,2.853501
29.8748,2.853074
29.9328,2.853797
29.9908,2.853846
30.0488,2.854195
30.1069,2.853898
30.1649,2.853491
30.2229,2.853761
30.2809,2.854206
30.3389,2.854017
30.3969,2.854632
30.4549,2.854506
30.5129,2.854236
30.5709,2.85457
30.6289,2.855002
30.6869,2.85511
30.745,2.855189
30.803,2.855443
30.861,2.855728
30.919,2.855894
30.977,2.855745
31.035,2.85542
31.093,2.856293
31.151,2.855786
31.209,2.856026
31.267,2.855994
31.325,2.85616
31.3831,2.856489
31.4411,2.855583
31.4991,2.855328
31.5571,2.855589
31.6151,2.855399
31.6731,2.855455
31.7311,2.855552
31.7891,2.855947
31.8471,2.8557
31.9051,2.855319
31.9632,2.855276
32.0212,2.855612
32.0792,2.854834
32.1372,2.855324
32.1952,2.853987
32.2532,2.853524
32.3112,2.854239
32.3692,2.854402
32.4272,2.854062
32.4852,2.853846
32.5432,2.854529
32.6013,2.854257
32.6593,2.854339
32.7173,2.854526
32.7753,2.854666
32.8333,2.855114
32.8913,2.854949
32.9493,2.855352
33.0073,2.855329
33.0653,2.855658
33.1233,2.855555
33.1813,2.856177
33.2394,2.855872
33.2974,2.855963
33.3554,2.855993
33.4134,2.856354
33.4714,2.856086
33.5294,2.856132
33.5874,2.856325
33.6454,2.856223
33.7034,2.856137
33.7614,2.855646
33.8194,2.856159
33.8775,2.85627
33.9355,2.85627
33.9935,2.856193
34.0515,2.856105
34.1095,2.855948
34.1675,2.856707
34.2255,2.856226
34.2835,2.856489
34.3415,2.855822
34.3995,2.85561
34.4576,2.855563
34.5156,2.855661
34.5736,2.855867
34.6316,2.855807
34.6896,2.855503
34.7476,2.855664
34.8056,2.855855
34.8636,2.855562
34.9216,2.85499
34.9796,2.854874
35.0376,2.855278
35.0957,2.85481
35.1537,2.854844
35.2117,2.855174
35.2697,2.85489
35.3277,2.85502
35.3857,2.855416
35.4437,2.855326
35.5017,2.855508
35.5597,2.855793
35.6177,2.855616
35.6757,2.854942
35.7338,2.854783
35.7918,2.854675
35.8498,2.854962
35.9078,2.85526
35.9658,2.85539
36.0238,2.854699
36.0818,2.854115
36.1398,2.854
36.1978,2.854608
36.2558,2.854558
36.3139,2.854209
36.3719,2.853926
36.4299,2.854024
36.4879,2.854102
36.5459,2.85426
36.6039,2.853979
36.6619,2.853611
36.7199,2.853902
36.7779,2.853609
36.8359,2.854038
36.8939,2.853732
36.952,2.854196
37.01,2.854108
37.068,2.853444
37.126,2.853526
37.184,2.853722
37.242,2.854772
37.3,2.854391
37.358,2.854192
37.416,2.854582
37.474,2.854897
37.532,2.855154
37.5901,2.854923
37.6481,2.855053
37.7061,2.854717
37.7641,2.854732
37.8221,2.855273
37.8801,2.855805
37.9381,2.855036
37.9961,2.855172
38.0541,2.855248
38.1121,2.855321
38.1702,2.855019
38.2282,2.855814
38.2862,2.855188
38.3442,2.855554
38.4022,2.855762
38.4602,2.855774
38.5182,2.855432
38.5762,2.85556
38.6342,2.855105
38.6922,2.855345
38.7502,2.855017
38.8083,2.855147
38.8663,2.855371
38.9243,2.85522
38.9823,2.855011
39.0403,2.85458
39.0983,2.854925
39.1563,2.855009
39.2143,2.855047
39.2723,2.854866
39.3303,2.854664
39.3883,2.854386
39.4464,2.854407
39.5044,2.85404
39.5624,2.853766
39.6204,2.853631
39.6784,2.853865
39.7364,2.853823
39.7944,2.853671
39.8524,2.853721
39.9104,2.853399
39.9684,2.853666
40.0264,2.853293
40.0845,2.853526
40.1425,2.853533
40.2005,2.85306
40.2585,2.853599
40.3165,2.853444
40.3745,2.852889
40.4325,2.853183
40.4905,2.852907
40.5485,2.852865
40.6065,2.853096
40.6646,2.853636
40.7226,2.853039
40.7806,2.853183
40.8386,2.852422
40.8966,2.85259
40.9546,2.852598
41.0126,2.852688
41.0706,2.852403
41.1286,2.851907
41.1866,2.851947
41.2446,2.851831
41.3027,2.851986
41.3607,2.851985
41.4187,2.851857
41.4767,2.851602
41.5347,2.851891
41.5927,2.851604
41.6507,2.851379
41.7087,2.851593
41.7667,2.85166
41.8247,2.851293
41.8827,2.851508
41.9408,2.851012
41.9988,2.851357
42.0568,2.851096
42.1148,2.851215
42.1728,2.850858
42.2308,2.851025
42.2888,2.850642
42.3468,2.850735
42.4048,2.850554
42.4628,2.850502
42.5209,2.850519
42.5789,2.851134
42.6369,2.850435
42.6949,2.850571
42.7529,2.850285
42.8109,2.850834
42.8689,2.850587
42.9269,2.850417
42.9849,2.851005
43.0429,2.850673
43.1009,2.850195
43.159,2.850537
43.217,2.850926
43.275,2.85037
43.333,2.849931
43.391,2.850019
43.449,2.848663
43.507,2.85005
43.565,2.850994
43.623,2.851244
43.681,2.851735
43.739,2.851044
43.7971,2.851354
43.8551,2.851518
43.9131,2.851621
43.9711,2.851751
44.0291,2.851147
44.0871,2.850786
44.1451,2.851432
44.2031,2.850926
44.2611,2.851321
44.3191,2.85104
44.3772,2.850924
44.4352,2.851039
44.4932,2.850923
44.5512,2.851066
44.6092,2.850518
44.6672,2.85022
44.7252,2.850451
44.7832,2.850386
44.8412,2.850496
44.8992,2.850235
44.9572,2.849856
45.0153,2.849644
45.0733,2.84942
45.1313,2.849495
45.1893,2.849643
45.2473,2.849163
45.3053,2.849481
45.3633,2.85001
45.4213,2.850105
45.4793,2.850017
45.5373,2.850043
45.5953,2.850127
45.6534,2.850036
45.7114,2.850119
45.7694,2.850084
45.8274,2.849819
45.8854,2.849602
45.9434,2.849786
46.0014,2.849932
46.0594,2.849329
46.1174,2.849283
46.1754,2.849069
46.2335,2.848744
46.2915,2.848686
46.3495,2.84869
46.4075,2.848557
46.4655,2.848793
46.5235,2.849352
46.5815,2.848648
46.6395,2.848661
46.6975,2.849209
46.7555,2.848519
46.8135,2.848445
46.8716,2.8485
46.9296,2.84747
46.9876,2.848278
47.0456,2.847815
47.1036,2.84816
47.1616,2.847914
47.2196,2.847673
47.2776,2.847209
47.3356,2.847123
47.3936,2.847119
47.4516,2.847203
47.5097,2.847024
47.5677,2.846911
47.6257,2.8473
47.6837,2.845919
47.7417,2.846683
47.7997,2.846793
47.8577,2.84621
47.9157,2.846519
47.9737,2.846494
48.0317,2.846002
48.0897,2.845242
48.1478,2.84652
48.2058,2.847637
48.2638,2.846404
48.3218,2.846766
48.3798,2.847244
48.4378,2.847046
48.4958,2.847169
48.5538,2.846793
48.6118,2.846475
48.6698,2.846923
48.7279,2.847106
48.7859,2.846735
48.8439,2.847155
48.9019,2.846794
48.9599,2.847208
49.0179,2.847108
49.0759,2.846834
49.1339,2.847107
49.1919,2.847027
49.2499,2.846765
49.3079,2.846753
49.366,2.846605
49.424,2.846848
49.482,2.846489
49.54,2.846618
49.598,2.846566
49.656,2.846567
49.714,2.846451
49.772,2.846522
49.83,2.846505
49.888,2.845922
49.946,2.845551
50.0041,2.845491
50.0621,2.844982
50.1201,2.844903
50.1781,2.845365
50.2361,2.845318
50.2941,2.845575
50.3521,2.845065
50.4101,2.845118
50.4681,2.845065
50.5261,2.845851
50.5842,2.846125
50.6422,2.846053
50.7002,2.845631
50.7582,2.845999
50.8162,2.845713
50.8742,2.845666
50.9322,2.84534
50.9902,2.8448
51.0482,2.84473
51.1062,2.845525
51.1642,2.845096
51.2223,2.845347
51.2803,2.845168
51.3383,2.846082
51.3963,2.845095
51.4543,2.845045
51.5123,2.84516
51.5703,2.845023
51.6283,2.845107
51.6863,2.844996
51.7443,2.844921
51.8023,2.845478
51.8604,2.844818
51.9184,2.844351
51.9764,2.844537
52.0344,2.844645
52.0924,2.844838
52.1504,2.844653
52.2084,2.844362
52.2664,2.84442
52.3244,2.844543
52.3824,2.844231
52.4405,2.844557
52.4985,2.845101
52.5565,2.844324
52.6145,2.844259
52.6725,2.843766
52.7305,2.844316
52.7885,2.844015
52.8465,2.843758
52.9045,2.843901
52.9625,2.843443
53.0205,2.843984
53.0786,2.84338
53.1366,2.844407
53.1946,2.8439
53.2526,2.843653
53.3106,2.843367
53.3686,2.843658
53.4266,2.842746
53.4846,2.843298
53.5426,2.842883
53.6006,2.843028
53.6586,2.842914
53.7167,2.84239
53.7747,2.842602
53.8327,2.842659
53.8907,2.842716
53.9487,2.842746
54.0067,2.842015
54.0647,2.842427
54.1227,2.841958
54.1807,2.842134
54.2387,2.842025
54.2967,2.841642
54.3548,2.84178
54.4128,2.841849
54.4708,2.841513
54.5288,2.841729
54.5868,2.841489
54.6448,2.841067
54.7028,2.840705
54.7608,2.841179
54.8188,2.840824
54.8768,2.841253
54.9349,2.841063
54.9929,2.839807
55.0509,2.839549
55.1089,2.839809
55.1669,2.840533
55.2249,2.840029
55.2829,2.840072
55.3409,2.839952
55.3989,2.839886
55.4569,2.839434
55.5149,2.839763
55.573,2.840174
55.631,2.840011
55.689,2.840966
55.747,2.840738
55.805,2.841623
55.863,2.841553
55.921,2.841493
55.979,2.841923
56.037,2.841644
56.095,2.841706
56.153,2.842048
56.2111,2.841975
56.2691,2.841741
56.3271,2.841282
56.3851,2.841201
56.4431,2.840781
56.5011,2.840991
56.5591,2.841123
56.6171,2.84093
56.6751,2.840345
56.7331,2.840293
56.7912,2.840718
56.8492,2.840437
56.9072,2.840307
56.9652,2.84038
57.0232,2.840278
57.0812,2.84026
57.1392,2.840675
57.1972,2.840767
57.2552,2.840174
57.3132,2.840558
57.3712,2.840211
57.4293,2.840436
57.4873,2.840305
57.5453,2.839975
57.6033,2.840257
57.6613,2.840138
57.7193,2.840151
57.7773,2.840531
57.8353,2.839814
57.8933,2.839833
57.9513,2.83952
58.0093,2.839868
58.0674,2.840294
58.1254,2.839589
58.1834,2.839185
58.2414,2.839181
58.2994,2.839617
58.3574,2.838934
58.4154,2.838954
58.4734,2.838977
58.5314,2.839109
58.5894,2.83917
58.6475,2.839041
58.7055,2.839412
58.7635,2.839054
58.8215,2.838588
58.8795,2.838606
58.9375,2.838639
58.9955,2.838533
59.0535,2.838733
59.1115,2.838492
59.1695,2.838546
59.2275,2.838748
59.2856,2.838042
59.3436,2.83825
59.4016,2.837741
59.4596,2.837312
59.5176,2.837374
59.5756,2.837614
59.6336,2.837971
59.6916,2.837447
59.7496,2.837068
59.8076,2.837618
59.8656,2.837907
59.9237,2.837666
59.9817,2.837534
60.0397,2.837474
60.0977,2.837111
60.1557,2.83802
60.2137,2.837864
60.2717,2.837746
60.3297,2.837834
60.3877,2.83814
60.4457,2.838289
60.5037,2.838426
60.5618,2.838501
60.6198,2.83831
60.6778,2.838001
60.7358,2.837419
60.7938,2.838045
60.8518,2.837696
60.9098,2.837901
60.9678,2.837798
61.0258,2.837779
61.0838,2.838112
61.1419,2.837523
61.1999,2.837268
61.2579,2.837129
61.3159,2.836932
61.3739,2.83672
61.4319,2.836489
61.4899,2.836423
61.5479,2.836517
61.6059,2.836627
61.6639,2.836956
61.7219,2.836869
61.78,2.836526
61.838,2.836004
61.896,2.836937
61.954,2.837443
62.012,2.837413
62.07,2.837777
62.128,2.837301
62.186,2.8371
62.244,2.837345
62.302,2.837052
62.36,2.83711
62.4181,2.836822
62.4761,2.836676
62.5341,2.836973
62.5921,2.836875
62.6501,2.836643
62.7081,2.836342
62.7661,2.83597
62.8241,2.835965
62.8821,2.836839
62.9401,2.836735
62.9982,2.83691
63.0562,2.836427
63.1142,2.836066
63.1722,2.836316
63.2302,2.835876
63.2882,2.836075
63.3462,2.836317
63.4042,2.836569
63.4622,2.836081
63.5202,2.836581
63.5782,2.836549
63.6363,2.836149
63.6943,2.836127
63.7523,2.835721
63.8103,2.83567
63.8683,2.835394
63.9263,2.835728
63.9843,2.83536
64.0423,2.836037
64.1003,2.835508
64.1583,2.834799
64.2163,2.836131
64.2744,2.835252
64.3324,2.835198
64.3904,2.835171
64.4484,2.83539
64.5064,2.835164
64.5644,2.834915
64.6224,2.834543
64.6804,2.834405
64.7384,2.835068
64.7964,2.834995
64.8545,2.834
64.9125,2.834386
64.9705,2.834733
65.0285,2.834706
65.0865,2.835356
65.1445,2.83507
65.2025,2.835108
65.2605,2.835062
65.3185,2.835356
65.3765,2.835351
65.4345,2.83477
65.4926,2.834844
65.5506,2.834903
65.6086,2.834238
65.6666,2.833975
65.7246,2.833695
65.7826,2.833236
65.8406,2.833983
65.8986,2.834195
65.9566,2.834408
66.0146,2.834005
66.0726,2.833444
66.1307,2.833552
66.1887,2.833695
66.2467,2.833605
66.3047,2.833665
66.3627,2.832986
66.4207,2.833697
66.4787,2.834193
66.5367,2.833455
66.5947,2.833249
66.6527,2.832753
66.7107,2.832773
66.7688,2.833063
66.8268,2.833216
66.8848,2.833719
66.9428,2.83237
67.0008,2.832801
67.0588,2.832807
67.1168,2.832566
67.1748,2.832075
67.2328,2.831559
67.2908,2.832
67.3489,2.832334
67.4069,2.832139
67.4649,2.831482
67.5229,2.831622
67.5809,2.831823
67.6389,2.83154
67.6969,2.831296
67.7549,2.832232
67.8129,2.832531
67.8709,2.83121
67.9289,2.83184
67.987,2.831147
68.045,2.831922
68.103,2.831088
68.161,2.831275
68.219,2.831454
68.277,2.830909
68.335,2.830401
68.393,2.830517
68.451,2.830655
68.509,2.830123
68.567,2.830364
68.6251,2.83066
68.6831,2.830144
68.7411,2.830242
68.7991,2.830271
68.8571,2.830337
68.9151,2.829589
68.9731,2.829918
69.0311,2.828635
69.0891,2.828744
69.1471,2.828578
69.2052,2.829057
69.2632,2.829401
69.3212,2.829463
69.3792,2.83002
69.4372,2.829353
69.4952,2.829152
69.5532,2.828962
69.6112,2.828427
69.6692,2.828925
69.7272,2.827968
69.7852,2.828789
69.8433,2.828584
69.9013,2.828325
69.9593,2.828098
70.0173,2.828082
70.0753,2.827751
70.1333,2.82787
70.1913,2.82782
70.2493,2.827872
70.3073,2.827732
70.3653,2.827762
70.4233,2.827801
70.4814,2.827993
70.5394,2.827113
70.5974,2.827511
70.6554,2.827496
70.7134,2.827225
70.7714,2.8273
70.8294,2.827385
70.8874,2.826939
70.9454,2.827319
71.0034,2.827033
71.0615,2.825659
71.1195,2.826728
71.1775,2.826906
71.2355,2.827222
71.2935,2.82715
71.3515,2.827189
71.4095,2.826954
71.4675,2.82659
71.5255,2.826693
71.5835,2.826821
71.6415,2.826764
71.6996,2.826725
71.7576,2.826962
71.8156,2.825765
71.8736,2.825645
71.9316,2.82569
71.9896,2.825697
72.0476,2.825402
72.1056,2.825594
72.1636,2.825711
72.2216,2.825251
72.2796,2.8255
72.3377,2.825745
72.3957,2.825994
72.4537,2.826317
72.5117,2.826111
72.5697,2.8259
72.6277,2.826422
72.6857,2.825993
72.7437,2.825853
72.8017,2.825428
72.8597,2.825647
72.9178,2.825718
72.9758,2.825499
73.0338,2.825484
73.0918,2.82505
73.1498,2.825109
73.2078,2.825358
73.2658,2.824247
73.3238,2.824552
73.3818,2.82491
73.4398,2.824299
73.4978,2.82455
73.5559,2.824741
73.6139,2.823847
73.6719,2.823802
73.7299,2.824177
73.7879,2.824269
73.8459,2.82356
73.9039,2.823575
73.9619,2.82351
74.0199,2.82365
74.0779,2.823841
74.1359,2.823716
74.194,2.822887
74.252,2.82326
74.31,2.822528
74.368,2.82252
74.426,2.822661
74.484,2.822927
74.542,2.822922
74.6,2.822402
74.658,2.822586
74.716,2.822363
74.774,2.822058
74.8321,2.822311
74.8901,2.82192
74.9481,2.822182
75.0061,2.821858
75.0641,2.822271
75.1221,2.821833
75.1801,2.821952
75.2381,2.822294
75.2961,2.82102
75.3541,2.821098
75.4122,2.820899
75.4702,2.820652
75.5282,2.821393
75.5862,2.820879
75.6442,2.820557
75.7022,2.820663
75.7602,2.821306
75.8182,2.820331
75.8762,2.820499
75.9342,2.821081
75.9922,2.821135
76.0503,2.820058
76.1083,2.82003
76.1663,2.820314
76.2243,2.820337
76.2823,2.819872
76.3403,2.819789
76.3983,2.819942
76.4563,2.819986
76.5143,2.820606
76.5723,2.819788
76.6303,2.81927
76.6884,2.819785
76.7464,2.819496
76.8044,2.818759
76.8624,2.819016
76.9204,2.818985
76.9784,2.818785
77.0364,2.819057
77.0944,2.818504
77.1524,2.817971
77.2104,2.817872
77.2685,2.818095
77.3265,2.8182
77.3845,2.81822
77.4425,2.817531
77.5005,2.81824
77.5585,2.81836
77.6165,2.818404
77.6745,2.817868
77.7325,2.818028
77.7905,2.817854
77.8485,2.817799
77.9066,2.817534
77.9646,2.817651
78.0226,2.817153
78.0806,2.81734
78.1386,2.81737
78.1966,2.817572
78.2546,2.817296
78.3126,2.817921
78.3706,2.817781
78.4286,2.817128
78.4866,2.817526
78.5447,2.817564
78.6027,2.816911
78.6607,2.817215
78.7187,2.817196
78.7767,2.81682
78.8347,2.816825
78.8927,2.817367
78.9507,2.817243
79.0087,2.817347
79.0667,2.817369
79.1248,2.817142
79.1828,2.817236
79.2408,2.817499
79.2988,2.817315
79.3568,2.818028
79.4148,2.817232
79.4728,2.817114
79.5308,2.816552
79.5888,2.817171
79.6468,2.817315
79.7048,2.816823
79.7629,2.816639
79.8209,2.816394
79.8789,2.815876
79.9369,2.816725
79.9949,2.81665
80.0529,2.815958
80.1109,2.815673
80.1689,2.816151
80.2269,2.815635
80.2849,2.81539
80.3429,2.815048
80.401,2.815371
80.459,2.815067
80.517,2.81508
80.575,2.815062
80.633,2.814686
80.691,2.815719
80.749,2.81494
80.807,2.815273
80.865,2.815219
80.923,2.815002
80.981,2.814927
81.0391,2.814841
81.0971,2.815387
81.1551,2.815094
81.2131,2.814208
81.2711,2.814101
81.3291,2.814196
81.3871,2.814166
81.4451,2.814435
81.5031,2.814282
81.5611,2.813605
81.6192,2.813631
81.6772,2.813287
81.7352,2.813631
81.7932,2.813644
81.8512,2.813376
81.9092,2.812618
81.9672,2.812792
82.0252,2.812079
82.0832,2.81244
82.1412,2.812682
82.1992,2.812549
82.2573,2.812648
82.3153,2.812275
82.3733,2.812537
82.4313,2.812193
82.4893,2.8112
82.5473,2.811833
82.6053,2.811665
82.6633,2.811566
82.7213,2.811746
82.7793,2.811375
82.8373,2.811205
82.8954,2.811468
82.9534,2.811483
83.0114,2.811143
83.0694,2.811316
83.1274,2.811021
83.1854,2.811002
83.2434,2.811518
83.3014,2.811186
83.3594,2.810579
83.4174,2.811034
83.4755,2.81055
83.5335,2.810511
83.5915,2.809674
83.6495,2.810051
83.7075,2.809089
83.7655,2.809828
83.8235,2.80983
83.8815,2.81069
83.9395,2.810131
83.9975,2.80967
84.0555,2.810075
84.1136,2.809627
84.1716,2.809544
84.2296,2.810257
84.2876,2.81011
84.3456,2.810139
84.4036,2.809315
84.4616,2.809869
84.5196,2.809494
84.5776,2.809618
84.6356,2.809262
84.6936,2.808647
84.7517,2.809256
84.8097,2.809159
84.8677,2.80902
84.9257,2.809226
84.9837,2.808941
85.0417,2.808818
85.0997,2.80942
85.1577,2.808797
85.2157,2.809248
85.2737,2.809762
85.3318,2.8089
85.3898,2.809262
85.4478,2.809327
85.5058,2.809444
85.5638,2.809441
85.6218,2.809453
85.6798,2.809014
85.7378,2.809264
85.7958,2.809878
85.8538,2.809702
85.9118,2.809057
85.9284,2.809351