File: processed_data/35.0mA1msec-0.2mA14msec.csv
Capacity_mAh,Voltage_V
0.0,3.163232
0.1225,3.047836
0.245,2.995408
0.367501,2.965053
0.490001,2.940498
0.612501,2.919593
0.735001,2.901597
0.857501,2.891198
0.980001,2.878444
1.1025,2.867126
1.225,2.858282
1.3475,2.84932
1.47,2.841858
1.5925,2.833549
1.715,2.828006
1.8375,2.82155
1.96,2.816645
2.0825,2.811918
2.205,2.807969
2.3275,2.804533
2.45,2.801135
2.5725,2.798703
2.695,2.79622
2.8175,2.794287
2.94,2.792687
3.0625,2.791547
3.185,2.789159
3.30751,2.787849
3.43001,2.786338
3.55251,2.786168
3.67501,2.784388
3.79751,2.785131
3.92001,2.782577
4.04251,2.782098
4.16501,2.781042
4.28751,2.781987
4.41001,2.780011
4.53251,2.781271
4.65501,2.781768
4.77751,2.780067
4.90001,2.78089
5.02251,2.779477
5.14501,2.777747
5.26751,2.775614
5.39001,2.775713
5.51251,2.776964
5.63501,2.777585
5.75751,2.776415
5.88001,2.77443
6.00251,2.774668
6.12501,2.774976
6.24751,2.776044
6.37001,2.775583
6.49251,2.77485
6.61501,2.774195
6.73751,2.773765
6.86001,2.774023
6.98251,2.773689
7.10501,2.773742
7.22751,2.772728
7.35001,2.772544
7.47251,2.772643
7.59501,2.771621
7.71751,2.771595
7.84001,2.77157
7.96251,2.771566
8.08501,2.771602
8.20751,2.772103
8.33001,2.77134
8.45251,2.771294
8.57501,2.770723
8.69751,2.769871
8.82001,2.770665
8.94251,2.770177
9.06501,2.769603
9.18751,2.769258
9.31001,2.768316
9.43251,2.768106
9.55501,2.767991
9.67751,2.767612
9.80001,2.767794
9.92252,2.767709
10.045,2.767323
10.1675,2.767648
10.29,2.766916
10.4125,2.766898
10.535,2.766768
10.6575,2.767115
10.78,2.76728
10.9025,2.767462
11.025,2.76767
11.1475,2.76688
11.27,2.766777
11.3925,2.767471
11.515,2.767094
11.6375,2.76716
11.76,2.766912
11.8825,2.766539
12.005,2.766337
12.1275,2.766016
12.25,2.765943
12.3725,2.76555
12.495,2.765635
12.6175,2.765001
12.74,2.765673
12.8625,2.765259
12.985,2.765463
13.1075,2.765538
13.23,2.765002
13.3525,2.764818
13.475,2.763921
13.5975,2.764138
13.72,2.763364
13.8425,2.763196
13.965,2.762618
14.0875,2.763255
14.21,2.762604
14.3325,2.76275
14.455,2.762563
14.5775,2.763039
14.7,2.763265
14.8225,2.762094
14.945,2.762733
15.0675,2.761528
15.19,2.761837
15.3125,2.761565
15.435,2.761948
15.5575,2.763044
15.68,2.763852
15.8025,2.763155
15.925,2.763873
16.0475,2.76421
16.17,2.763151
16.2925,2.763011
16.415,2.764194
16.5375,2.763563
16.66,2.763807
16.7825,2.763092
16.905,2.763582
17.0275,2.765132
17.15,2.764144
17.2725,2.764421
17.395,2.764319
17.5175,2.763669
17.64,2.763745
17.7625,2.763598
17.885,2.763138
18.0075,2.762486
18.13,2.761624
18.2525,2.762285
18.375,2.763679
18.4975,2.764327
18.62,2.763829
18.7425,2.764534
18.865,2.763357
18.9875,2.763919
19.11,2.762953
19.2325,2.764211
19.355,2.763729
19.4775,2.762985
19.6,2.763127
19.7225,2.762056
19.845,2.763314
19.9675,2.76436
20.09,2.763931
20.2125,2.76339
20.335,2.762736
20.4575,2.763378
20.58,2.764088
20.7025,2.763878
20.825,2.764635
20.9475,2.763673
21.07,2.763755
21.1925,2.764758
21.315,2.765423
21.4375,2.766051
21.56,2.763428
21.6825,2.762862
21.805,2.763463
21.9275,2.763852
22.05,2.764276
22.1725,2.762544
22.295,2.760608
22.4175,2.762116
22.54,2.760815
22.6625,2.758344
22.785,2.761295
22.9075,2.763656
23.03,2.760924
23.1525,2.762295
23.275,2.761149
23.3975,2.761325
23.52,2.760344
23.6425,2.760382
23.765,2.761752
23.8875,2.761279
24.01,2.762384
24.1325,2.761796
24.255,2.763693
24.3775,2.763489
24.5,2.760892
24.6225,2.761064
24.745,2.762484
24.8675,2.762075
24.99,2.760654
25.1125,2.761042
25.235,2.760205
25.3575,2.759515
25.48,2.761173
25.6025,2.761584
25.725,2.761276
25.8475,2.75995
25.97,2.758125
26.0925,2.761729
26.215,2.762001
26.3375,2.761468
26.46,2.760837
26.5825,2.761724
26.705,2.762189
26.8275,2.760895
26.95,2.759978
27.0725,2.761158
27.195,2.759507
27.3175,2.760948
27.44,2.759552
27.5625,2.757742
27.685,2.759393
27.8075,2.757884
27.93,2.757533
28.0525,2.759133
28.175,2.758341
28.2975,2.757118
28.42,2.755335
28.5425,2.757582
28.665,2.757035
28.7875,2.758744
28.91,2.756236
29.0325,2.756502
29.155,2.7585
29.2775,2.759236
29.4,2.757551
29.5225,2.756876
29.645,2.758296
29.7675,2.758685
29.89,2.75841
30.0125,2.756238
30.135,2.757264
30.2575,2.756643
30.38,2.757063
30.5025,2.755024
30.625,2.755325
30.7475,2.7509
30.87,2.754221
30.9925,2.755718
31.115,2.753947
31.2375,2.755745
31.36,2.755464
31.4825,2.75627
31.605,2.755797
31.7275,2.755699
31.85,2.753656
31.9725,2.754492
32.095,2.755645
32.2175,2.754608
32.34,2.75652
32.4625,2.752931
32.585,2.753771
32.7075,2.751295
32.8301,2.752431
32.9526,2.752828
33.0751,2.754568
33.1976,2.752535
33.3201,2.751431
33.4426,2.75119
33.5651,2.751635
33.6876,2.751189
33.8101,2.749507
33.9326,2.75062
34.0551,2.752302
34.1776,2.752302
34.3001,2.752596
34.4226,2.752683
34.5451,2.751648
34.6676,2.750298
34.7901,2.751977
34.9126,2.751092
35.0351,2.752318
35.1576,2.749987
35.2801,2.750351
35.4026,2.750474
35.5251,2.749527
35.6476,2.751603
35.7701,2.749699
35.8926,2.750947
36.0151,2.749238
36.1376,2.748345
36.2601,2.747874
36.3826,2.74775
36.5051,2.744836
36.6276,2.745662
36.7501,2.74647
36.8726,2.746812
36.9951,2.746306
37.1176,2.743558
37.2401,2.744653
37.3626,2.747255
37.4851,2.747438
37.6076,2.745395
37.7301,2.746764
37.8526,2.74322
37.9751,2.74074
38.0976,2.744244
38.2201,2.742599
38.3426,2.743154
38.4651,2.742989
38.5876,2.743976
38.7101,2.744411
38.8326,2.744179
38.9551,2.74475
39.0776,2.743401
39.2001,2.744283
39.3226,2.743571
39.4451,2.742932
39.5676,2.739405
39.6901,2.739156
39.8126,2.740017
39.9351,2.739499
40.0576,2.739944
40.1801,2.740244
40.3026,2.741827
40.4251,2.740412
40.5476,2.741238
40.6701,2.7413
40.7926,2.741903
40.9151,2.740706
41.0376,2.738583
41.1601,2.74031
41.2826,2.740252
41.4051,2.739706
41.5276,2.74262
41.6501,2.742074
41.7726,2.740637
41.8951,2.741333
42.0176,2.739746
42.1401,2.739247
42.2626,2.739458
42.3851,2.739821
42.5076,2.740275
42.6301,2.740451
42.7526,2.739937
42.8751,2.739737
42.9976,2.739882
43.1201,2.738743
43.2426,2.739485
43.3651,2.739262
43.4876,2.738334
43.6101,2.738828
43.7326,2.739429
43.8551,2.738857
43.9776,2.738628
44.1001,2.737975
44.2226,2.737127
44.3451,2.737991
44.4676,2.738337
44.5901,2.738696
44.7126,2.737604
44.8351,2.73698
44.9576,2.735054
45.0801,2.736809
45.2026,2.738349
45.3251,2.739129
45.4476,2.74005
45.5701,2.73926
45.6926,2.739278
45.8151,2.73873
45.9376,2.737248
46.0601,2.737217
46.1826,2.737108
46.3051,2.736496
46.4276,2.73539
46.5501,2.735579
46.6726,2.736459
46.7951,2.737194
46.9176,2.734643
47.0401,2.734677
47.1626,2.734209
47.2851,2.733336
47.4076,2.734443
47.5301,2.735269
47.6526,2.735157
47.7751,2.73479
47.8976,2.734355
48.0201,2.735021
48.1426,2.734727
48.2651,2.734073
48.3876,2.73436
48.5101,2.734904
48.6326,2.734282
48.7551,2.734052
48.8776,2.733369
49.0001,2.73221
49.1226,2.733697
49.2451,2.73456
49.3676,2.735201
49.4901,2.734341
49.6126,2.734038
49.7351,2.734284
49.8576,2.733469
49.9801,2.733611
50.1026,2.733293
50.2251,2.732984
50.3476,2.732913
50.4701,2.73293
50.5926,2.733826
50.7151,2.732934
50.8376,2.732685
50.9601,2.733042
51.0826,2.732562
51.2051,2.731982
51.3276,2.732658
51.4501,2.732498
51.5726,2.731863
51.6951,2.732246
51.8176,2.732069
51.9401,2.732448
52.0626,2.731858
52.1851,2.731416
52.3076,2.731317
52.4301,2.731879
52.5526,2.731412
52.6751,2.730803
52.7976,2.730434
52.9201,2.730064
53.0426,2.730405
53.1651,2.730765
53.2876,2.73056
53.4101,2.730214
53.5326,2.729976
53.6551,2.729696
53.7776,2.729976
53.9001,2.729383
54.0226,2.730054
54.1451,2.729879
54.2676,2.729699
54.3901,2.729425
54.5126,2.728837
54.6351,2.729054
54.7576,2.728665
54.8801,2.729073
55.0026,2.7293
55.1251,2.728809
55.2476,2.728521
55.3701,2.728077
55.4926,2.728223
55.6151,2.727998
55.7376,2.727682
55.8601,2.727487
55.9826,2.726523
56.1051,2.727238
56.2276,2.727587
56.3501,2.727259
56.4726,2.726962
56.5951,2.726985
56.7176,2.726484
56.8401,2.726622
56.9626,2.726257
57.0851,2.726663
57.2076,2.726293
57.3301,2.726299
57.4526,2.726278
57.5751,2.725822
57.6976,2.726042
57.8201,2.725899
57.9426,2.725801
58.0651,2.725605
58.1876,2.726055
58.3101,2.725874
58.4326,2.725438
58.5551,2.724503
58.6776,2.725157
58.8001,2.724853
58.9226,2.724505
59.0451,2.724401
59.1676,2.723834
59.2901,2.724062
59.4126,2.723969
59.5351,2.723407
59.6576,2.723508
59.7801,2.723322
59.9026,2.723507
60.0251,2.722926
60.1476,2.72311
60.2701,2.722997
60.3926,2.723089
60.5151,2.722865
60.6376,2.722463
60.7601,2.722656
60.8826,2.722661
61.0051,2.722472
61.1276,2.722884
61.2501,2.722548
61.3726,2.722338
61.4951,2.722537
61.6176,2.722645
61.7401,2.722845
61.8626,2.723872
61.9851,2.724088
62.1076,2.723786
62.2301,2.723601
62.3526,2.72378
62.4751,2.723374
62.5976,2.723602
62.7201,2.722949
62.8426,2.72278
62.9651,2.721561
63.0876,2.72286
63.2101,2.722425
63.3326,2.723317
63.4551,2.72311
63.5776,2.721139
63.7001,2.722412
63.8226,2.72211
63.9451,2.723383
64.0676,2.722411
64.1901,2.72193
64.3126,2.720404
64.4351,2.720575
64.5576,2.718189
64.6801,2.718712
64.8026,2.719904
64.9251,2.721584
65.0476,2.721361
65.1701,2.721357
65.2926,2.719651
65.4151,2.719966
65.5376,2.718332
65.6601,2.718232
65.7826,2.719067
65.9051,2.717935
66.0276,2.719107
66.1501,2.718444
66.2726,2.719007
66.3951,2.718054
66.5176,2.717977
66.6401,2.717299
66.7626,2.715448
66.8851,2.717307
67.0076,2.716108
67.1301,2.715402
67.2526,2.713571
67.3751,2.714471
67.4976,2.716333
67.6201,2.715743
67.7426,2.717703
67.8651,2.716819
67.9876,2.716186
68.1101,2.717144
68.2326,2.717188
68.3551,2.715682
68.4776,2.717124
68.6001,2.717146
68.7226,2.71823
68.8451,2.717094
68.9676,2.714134
69.0901,2.716146
69.2126,2.714628
69.3351,2.71508
69.4576,2.716645
69.5801,2.716784
69.7026,2.716572
69.8251,2.719692
69.9476,2.719129
70.0701,2.718625
70.1926,2.717303
70.3151,2.717198
70.4376,2.716941
70.5601,2.716806
70.6826,2.715856
70.8051,2.715681
70.9276,2.715788
71.0501,2.715669
71.1726,2.716346
71.2951,2.715276
71.4176,2.715824
71.5401,2.714179
71.6626,2.712136
71.7851,2.711141
71.9076,2.713283
72.0301,2.713465
72.1526,2.713555
72.2751,2.713032
72.3976,2.712527
72.5201,2.712406
72.6426,2.713007
72.7651,2.712477
72.8876,2.713342
73.0101,2.712696
73.1326,2.71206
73.2551,2.709831
73.3776,2.711419
73.5001,2.709516
73.6226,2.709497
73.7451,2.709226
73.8676,2.708045
73.9901,2.708973
74.1126,2.709433
74.2351,2.70864
74.3576,2.709801
74.4801,2.709126
74.6026,2.707968
74.7251,2.70825
74.8476,2.707639
74.9701,2.7067
75.0926,2.707046
75.2151,2.708098
75.3376,2.707111
75.4601,2.706443
75.5826,2.706564
75.7051,2.705593
75.8276,2.705851
75.9501,2.704959
76.0726,2.704939
76.1951,2.703793
76.3176,2.703105
76.4401,2.704217
76.5626,2.703976
76.6851,2.703063
76.8076,2.702402
76.9301,2.700416
77.0526,2.701097
77.1751,2.702887
77.2976,2.703362
77.4201,2.70334
77.5426,2.702745
77.6651,2.702085
77.7876,2.701224
77.9101,2.699088
78.0326,2.698504
78.1551,2.698126
78.2776,2.699128
78.4001,2.698231
78.5226,2.698817
78.6451,2.697722
78.7676,2.698138
78.8901,2.698195
79.0126,2.69939
79.1351,2.698514
79.2576,2.697877
79.3801,2.696403
79.5026,2.694614
79.6251,2.693879
79.7476,2.69442
79.8701,2.694795
79.9926,2.695109
80.1151,2.695355
80.2376,2.693323
80.3601,2.69367
80.4826,2.694699
80.6051,2.692786
80.7276,2.691661
80.8501,2.690698
80.9726,2.691935
81.0951,2.691698
81.2176,2.69186
81.3401,2.689855
81.4626,2.692168
81.5851,2.693298
81.7076,2.691823
81.8301,2.691688
81.9526,2.690926
82.0751,2.690226
82.1976,2.689971
82.3201,2.687978
82.4426,2.688927
82.5651,2.68843
82.6876,2.688488
82.8101,2.688602
82.9326,2.688654
83.0551,2.689743
83.1776,2.690892
83.3001,2.690488
83.4226,2.689465
83.5451,2.687561
83.6676,2.685649
83.7901,2.687616
83.9126,2.687897
84.0351,2.687444
84.1576,2.685751
84.2801,2.685852
84.4026,2.685119
84.5251,2.684647
84.6476,2.68429
84.7701,2.683506
84.8926,2.684891
85.0151,2.684712
85.1376,2.684908
85.2601,2.684268
85.3826,2.684339
85.5051,2.683834
85.6276,2.684229
85.7501,2.683956
85.8726,2.681643
85.9951,2.680194
86.1176,2.681907
86.2401,2.681861
86.3626,2.6809
86.4851,2.680608
86.6076,2.680695
86.7301,2.680136
86.8526,2.679851
86.9751,2.680148
87.0976,2.679051
87.2201,2.678759
87.3426,2.677418
87.4651,2.676445
87.5876,2.676758
87.7101,2.676524
87.8326,2.674942
87.9551,2.675496
88.0776,2.675094
88.2001,2.674676
88.3226,2.672704
88.4451,2.673522
88.5676,2.673552
88.6901,2.672763
88.8126,2.672929
88.9351,2.673745
89.0576,2.672931
89.1801,2.672651
89.3026,2.671853
89.4251,2.671705
89.5476,2.671008
89.6701,2.670357
89.7926,2.670996
89.9151,2.671642
90.0376,2.671169
90.1601,2.671098
90.2826,2.672636
90.4051,2.670771
90.5276,2.671375
90.6501,2.671094
90.7726,2.670892
90.8951,2.670342
91.0176,2.669616
91.1401,2.667821
91.2626,2.668146
91.3851,2.666104
91.5076,2.666053
91.6301,2.668225
91.7526,2.667996
91.8751,2.667504
91.9976,2.665827
92.1201,2.663621
92.2426,2.662104
92.3651,2.661824
92.4876,2.660933
92.6101,2.661002
92.7326,2.662272
92.8551,2.663143
92.9776,2.659528
93.1001,2.660725
93.2226,2.660372
93.3451,2.662446
93.4676,2.662555
93.5901,2.661547
93.7126,2.660849
93.8351,2.658212
93.9576,2.659448
94.0801,2.659387
94.2026,2.658187
94.3251,2.659092
94.4476,2.658507
94.5701,2.659551
94.6926,2.656773
94.8151,2.658186
94.9376,2.655536
95.0601,2.655216
95.1826,2.655457
95.3051,2.656104
95.4276,2.656267
95.5501,2.656898
95.6726,2.655801
95.7951,2.656066
95.9176,2.656157
96.0401,2.654721
96.1626,2.654214
96.2851,2.655305
96.4076,2.650842
96.5301,2.651361
96.6526,2.651514
96.7751,2.65378
96.8976,2.65182
97.0201,2.653596
97.1426,2.654115
97.2651,2.651085
97.3876,2.651361
97.5101,2.650581
97.6326,2.652493
97.7551,2.652254
97.8776,2.651624
98.0001,2.649961
98.1226,2.645021
98.2451,2.649057
98.3677,2.648141
98.4902,2.648631
98.6127,2.64824
98.7352,2.647682
98.8577,2.647318
98.9802,2.643722
99.1027,2.646436
99.2252,2.64635
99.3477,2.643042
99.4702,2.646899
99.5927,2.644922
99.7152,2.646328
99.8377,2.646907
99.9602,2.643605
100.083,2.647463
100.205,2.646538
100.328,2.644498
100.45,2.644518
100.573,2.645447
100.695,2.644116
100.818,2.64457
100.94,2.642762
101.063,2.643785
101.185,2.642704
101.308,2.641063
101.43,2.640721
101.553,2.639129
101.675,2.640112
101.798,2.639073
101.92,2.640032
102.043,2.63916
102.165,2.64031
102.288,2.639762
102.41,2.635043
102.533,2.635775
102.655,2.636901
102.778,2.637395
102.9,2.635711
103.023,2.634455
103.145,2.6379
103.268,2.638196
103.39,2.636402
103.513,2.636394
103.635,2.63553
103.758,2.635558
103.88,2.633139
104.003,2.634996
104.125,2.633365
104.248,2.636598
104.37,2.634434
104.493,2.636252
104.615,2.631986
104.738,2.632201
104.86,2.629393
104.983,2.633351
105.105,2.632751
105.228,2.632579
105.35,2.632878
105.473,2.631806
105.595,2.631693
105.718,2.633686
105.84,2.633208
105.963,2.631358
106.085,2.630986
106.208,2.631132
106.33,2.630657
106.453,2.63023
106.575,2.628736
106.698,2.628013
106.82,2.630724
106.943,2.629551
107.065,2.628177
107.188,2.63049
107.31,2.630899
107.433,2.629736
107.555,2.628121
107.678,2.626787
107.8,2.626464
107.923,2.626374
108.045,2.626467
108.168,2.626662
108.29,2.62468
108.413,2.625268
108.535,2.627274
108.658,2.626461
108.78,2.626824
108.903,2.626694
109.025,2.626276
109.148,2.626678
109.27,2.626253
109.393,2.624933
109.515,2.625332
109.638,2.62465
109.76,2.624203
109.883,2.623578
110.005,2.622911
110.128,2.621292
110.25,2.622676
110.373,2.622502
110.495,2.62102
110.618,2.623126
110.74,2.622467
110.863,2.621204
110.985,2.621976
111.108,2.621808
111.23,2.620832
111.353,2.619877
111.475,2.620596
111.598,2.620228
111.72,2.618862
111.843,2.618546
111.965,2.618471
112.088,2.618182
112.21,2.617602
112.333,2.617163
112.455,2.616102
112.578,2.617497
112.7,2.615676
112.823,2.614239
112.945,2.614552
113.068,2.615277
113.19,2.614312
113.313,2.614852
113.435,2.614156
113.558,2.613194
113.68,2.61174
113.803,2.610565
113.925,2.610895
114.048,2.610401
114.17,2.610941
114.293,2.611355
114.415,2.612016
114.538,2.611406
114.66,2.610653
114.783,2.609965
114.905,2.609478
115.028,2.607793
115.15,2.608258
115.273,2.609563
115.395,2.608037
115.518,2.607421
115.64,2.60433
115.763,2.606423
115.885,2.60643
116.008,2.607018
116.13,2.607638
116.253,2.605998
116.375,2.605322
116.498,2.606061
116.62,2.605144
116.743,2.6061
116.865,2.60516
116.988,2.603637
117.11,2.603245
117.233,2.603461
117.355,2.602489
117.478,2.60245
117.6,2.601353
117.723,2.601149
117.845,2.600765
117.968,2.600529
118.09,2.59992
118.213,2.599023
118.335,2.599413
118.458,2.599762
118.58,2.598972
118.703,2.597889
118.825,2.596926
118.948,2.595745
119.07,2.596272
119.193,2.598526
119.315,2.597759
119.438,2.596363
119.56,2.596287
119.683,2.594256
119.805,2.596668
119.928,2.595348
120.05,2.595702
120.173,2.595515
120.295,2.594278
120.418,2.594198
120.54,2.594436
120.663,2.592538
120.785,2.592724
120.908,2.591713
121.03,2.59211
121.153,2.590605
121.275,2.590493
121.398,2.589201
121.52,2.587809
121.643,2.58884
121.765,2.588281
121.888,2.589452
122.01,2.588866
122.133,2.587837
122.255,2.58487
122.378,2.587242
122.5,2.589021
122.623,2.588087
122.745,2.587575
122.868,2.586353
122.99,2.582099
123.113,2.583038
123.235,2.584104
123.358,2.583026
123.48,2.584788
123.603,2.584205
123.725,2.5836
123.848,2.582872
123.97,2.582191
124.093,2.579866
124.215,2.580224
124.338,2.578814
124.46,2.578264
124.583,2.578815
124.705,2.582446
124.828,2.582597
124.95,2.580723
125.073,2.579646
125.195,2.578593
125.318,2.578638
125.44,2.581567
125.563,2.581738
125.685,2.578243
125.808,2.577548
125.93,2.580327
126.053,2.579634
126.175,2.580626
126.298,2.580154
126.42,2.579617
126.543,2.578315
126.665,2.578735
126.788,2.577725
126.91,2.576993
127.033,2.577436
127.155,2.576595
127.278,2.575662
127.4,2.574977
127.523,2.574638
127.645,2.5755
127.768,2.574005
127.89,2.573856
128.013,2.573277
128.135,2.574819
128.258,2.574681
128.38,2.573789
128.503,2.573381
128.625,2.572731
128.748,2.572368
128.87,2.571229
128.993,2.57101
129.115,2.570726
129.238,2.570235
129.36,2.569516
129.483,2.568553
129.605,2.567904
129.728,2.567482
129.85,2.566564
129.973,2.566971
130.095,2.567002
130.218,2.565841
130.34,2.565262
130.463,2.563756
130.585,2.563814
130.708,2.563517
130.83,2.564175
130.953,2.563524
131.075,2.563048
131.198,2.563397
131.32,2.562109
131.443,2.561825
131.565,2.560952
131.688,2.560859
131.81,2.559861
131.933,2.558322
132.055,2.557046
132.178,2.55691
132.3,2.556735
132.423,2.555639
132.545,2.555856
132.668,2.555961
132.79,2.555732
132.913,2.553939
133.035,2.552385
133.158,2.552876
133.28,2.552565
133.403,2.552894
133.525,2.553136
133.648,2.551434
133.77,2.550986
133.893,2.549751
134.015,2.548707
134.138,2.547305
134.26,2.547455
134.383,2.546968
134.505,2.546046
134.628,2.546362
134.75,2.545621
134.873,2.544308
134.995,2.544393
135.118,2.544121
135.24,2.544227
135.363,2.544383
135.485,2.54373
135.608,2.542259
135.73,2.5418
135.853,2.540333
135.975,2.53936
136.098,2.540118
136.22,2.538481
136.343,2.5346
136.465,2.536107
136.588,2.535393
136.71,2.535109
136.833,2.535338
136.955,2.533657
137.078,2.534897
137.2,2.534504
137.323,2.534661
137.445,2.532565
137.568,2.532131
137.69,2.5309
137.813,2.530539
137.935,2.530575
138.058,2.530209
138.18,2.529786
138.303,2.529605
138.425,2.528022
138.548,2.527982
138.67,2.528017
138.793,2.527111
138.915,2.525678
139.038,2.52463
139.16,2.525053
139.283,2.524285
139.405,2.523766
139.528,2.52208
139.65,2.520674
139.773,2.520491
139.895,2.519666
140.018,2.517
140.14,2.517681
140.263,2.518224
140.385,2.51721
140.508,2.515974
140.63,2.513911
140.753,2.513443
140.875,2.51265
140.998,2.512576
141.12,2.513686
141.243,2.513433
141.365,2.513782
141.488,2.513292
141.61,2.511497
141.733,2.510557
141.855,2.510014
141.978,2.508704
142.1,2.509328
142.223,2.509552
142.345,2.507709
142.468,2.506925
142.59,2.508416
142.713,2.507411
142.835,2.505925
142.958,2.502768
143.08,2.502573
143.203,2.506052
143.325,2.506899
143.448,2.505821
143.57,2.506029
143.693,2.503301
143.815,2.501415
143.938,2.498686
144.06,2.500735
144.183,2.499676
144.305,2.498788
144.428,2.497876
144.55,2.496815
144.673,2.496926
144.795,2.497233
144.918,2.495825
145.04,2.494376
145.163,2.493267
145.285,2.492318
145.408,2.492198
145.53,2.491776
145.653,2.490721
145.775,2.489024
145.898,2.489769
146.02,2.486639
146.143,2.484829
146.265,2.48547
146.388,2.485491
146.51,2.484234
146.633,2.483284
146.755,2.483299
146.878,2.481422
147,2.4836
147.123,2.483209
147.245,2.484449
147.368,2.485157
147.49,2.484671
147.613,2.4833
147.735,2.482755
147.858,2.48235
147.98,2.481596
148.103,2.479625
148.225,2.480055
148.348,2.479344
148.47,2.478346
148.593,2.477338
148.715,2.476399
148.838,2.475443
148.96,2.472925
149.083,2.474355
149.205,2.473958
149.328,2.473655
149.45,2.472502
149.573,2.472297
149.695,2.471853
149.818,2.471924
149.94,2.471141
150.063,2.470043
150.185,2.470055
150.308,2.469142
150.43,2.46838
150.553,2.466795
150.675,2.466519
150.798,2.465951
150.92,2.465129
151.043,2.46381
151.165,2.462193
151.288,2.46284
151.41,2.461798
151.533,2.460815
151.655,2.459934
151.778,2.459919
151.9,2.458726
152.023,2.458082
152.145,2.457299
152.268,2.456756
152.39,2.456044
152.513,2.454822
152.635,2.454025
152.758,2.452998
152.88,2.45324
153.003,2.452315
153.125,2.451515
153.248,2.450613
153.37,2.44896
153.493,2.449403
153.615,2.448654
153.738,2.447601
153.86,2.44693
153.983,2.44592
154.105,2.445772
154.228,2.44649
154.35,2.44571
154.473,2.443916
154.595,2.44173
154.718,2.440325
154.84,2.441527
154.963,2.440803
155.085,2.440783
155.208,2.439435
155.33,2.437617
155.453,2.43764
155.575,2.435102
155.698,2.433982
155.82,2.432867
155.943,2.432435
156.065,2.431367
156.188,2.43115
156.31,2.430648
156.433,2.429851
156.555,2.429537
156.678,2.428213
156.8,2.427331
156.923,2.427154
157.045,2.426028
157.168,2.425584
157.29,2.423697
157.413,2.422143
157.535,2.422634
157.658,2.421664
157.78,2.421676
157.903,2.419559
158.025,2.419124
158.148,2.417845
158.27,2.415953
158.393,2.414535
158.515,2.413056
158.638,2.412162
158.76,2.410788
158.883,2.410011
159.005,2.409149
159.128,2.408755
159.25,2.407063
159.373,2.405601
159.495,2.404994
159.618,2.404469
159.74,2.402965
159.863,2.40128
159.985,2.400073
160.108,2.400706
160.23,2.400326
160.353,2.399563
160.475,2.398841
160.598,2.397616
160.72,2.396597
160.843,2.396069
160.965,2.394638
161.088,2.393658
161.21,2.391512
161.333,2.39099
161.455,2.389441
161.578,2.389472
161.7,2.389283
161.823,2.385714
161.945,2.385153
162.068,2.385511
162.19,2.384873
162.313,2.384682
162.435,2.38399
162.558,2.380047
162.68,2.37911
162.803,2.375637
162.925,2.376989
163.048,2.376882
163.17,2.377925
163.293,2.377564
163.415,2.3691
163.538,2.368328
163.66,2.371666
163.783,2.365119
163.905,2.35551
164.028,2.362505
164.15,2.356962
164.273,2.345959
164.395,2.342703
164.518,2.33889
164.64,2.334725
164.763,2.332285
164.885,2.329077
165.008,2.327504
165.13,2.326526
165.253,2.327152
165.375,2.326569
165.498,2.323768
165.62,2.323371
165.743,2.32095
165.865,2.31912
165.988,2.316668
166.11,2.317995
166.233,2.315143
166.355,2.313989
166.478,2.312298
166.6,2.310905
166.723,2.307537
166.845,2.308387
166.968,2.30417
167.09,2.301684
167.213,2.299459
167.335,2.295739
167.458,2.298314
167.58,2.295442
167.703,2.292444
167.825,2.290616
167.948,2.285956
168.07,2.285196
168.193,2.291438
168.315,2.288719
168.438,2.289105
168.56,2.285908
168.683,2.286984
168.805,2.284193
168.928,2.280511
169.05,2.280714
169.173,2.280742
169.295,2.278713
169.418,2.278268
169.54,2.27763
169.663,2.276953
169.785,2.275205
169.908,2.271935
170.03,2.271145
170.153,2.267473
170.275,2.26403
170.398,2.262037
170.52,2.266032
170.643,2.263828
170.765,2.265705
170.888,2.261081
171.01,2.26301
171.133,2.259819
171.255,2.260597
171.378,2.257229
171.5,2.258897
171.623,2.258639
171.745,2.258815
171.868,2.256163
171.99,2.253095
172.113,2.25257
172.235,2.252392
172.358,2.249707
172.48,2.251137
172.603,2.249945
172.725,2.249082
172.848,2.248246
172.97,2.245175
173.093,2.243602
173.215,2.241968
173.338,2.240317
173.46,2.238385
173.583,2.238046
173.705,2.237511
173.828,2.236142
173.95,2.234529
174.073,2.233191
174.195,2.234014
174.318,2.232757
174.44,2.230641
174.563,2.22497
174.685,2.227979
174.808,2.225609
174.93,2.22324
175.053,2.220171
175.175,2.222015
175.298,2.220457
175.42,2.218874
175.543,2.217666
175.665,2.216837
175.788,2.217406
175.91,2.21548
176.033,2.213451
176.155,2.211874
176.278,2.211557
176.4,2.210573
176.523,2.20979
176.645,2.208128
176.768,2.208131
176.89,2.208106
177.013,2.207625
177.135,2.205727
177.258,2.205649
177.38,2.205153
177.503,2.203484
177.625,2.201361
177.748,2.201678
177.87,2.201582
177.993,2.199889
178.115,2.198853
178.238,2.198049
178.36,2.197724
178.483,2.197023
178.605,2.195089
178.728,2.194567
178.85,2.194509
178.973,2.193809
179.095,2.192879
179.218,2.191062
179.34,2.191963
179.463,2.191054
179.585,2.190233
179.708,2.188119
179.83,2.18806
179.953,2.188019
180.075,2.187389
180.198,2.185327
180.32,2.185084
180.443,2.183974
180.565,2.183017
180.688,2.181949
180.81,2.18061
180.933,2.180562
181.055,2.17915
181.178,2.178958
181.3,2.177443
181.423,2.176919
181.458,2.176783