File: processed_data/40.0mA8msec-0.2mA12msec.csv
Capacity_mAh,Voltage_V
0.0,2.65561
0.738834,2.56452
1.47767,2.53332
2.2165,2.51411
2.95534,2.48479
3.69417,2.46913
4.43301,2.46239
5.17184,2.4517
5.91068,2.4463
6.64951,2.45268
7.38834,2.45
8.12718,2.44884
8.86601,2.44588
9.60485,2.44042
10.3437,2.4347
11.0825,2.42908
11.8214,2.42186
12.5602,2.41434
13.299,2.40679
14.0379,2.39836
14.7767,2.38889
15.5155,2.37928
16.2544,2.36832
16.9932,2.35595
17.732,2.34185
18.4709,2.32698
19.2097,2.30958
19.9485,2.28904
20.6874,2.2664
21.4262,2.24138
22.165,2.21367
22.9039,2.18135
23.6427,2.14389
24.3815,2.09713
25.1204,2.04578
25.8592,1.98219
26.598,1.90709
27.3369,1.8172
28.0757,1.71178
28.8145,1.58961
29.5534,1.45092
30.2922,1.30036
31.031,1.14878
31.7699,1.00848
32.5087,0.90995
33.2476,0.847023
33.9864,0.785662
34.7252,0.71649
35.4641,0.640158
36.2029,0.561081
36.9417,0.486153
37.6806,0.405349
38.4194,0.336381
39.1582,0.323225
39.8971,0.312051
40.6359,0.304298
41.3747,0.298524
42.1136,0.293594
42.8524,0.2891
43.5912,0.285164
44.3301,0.282178
45.0689,0.27908
45.8077,0.276712
46.5466,0.27372
47.2854,0.270728
48.0242,0.268871
48.7631,0.266995
49.5019,0.26523
50.2407,0.263656
50.9796,0.262186
51.7184,0.260973
52.4572,0.260147
53.1961,0.258275
53.9349,0.257411
54.6738,0.25606
55.4126,0.255225
56.1514,0.254577
56.8903,0.25347
57.6291,0.252367
58.3679,0.251905
59.1068,0.25111
59.8456,0.251079
60.5844,0.250458
61.3233,0.249487
62.0621,0.248747
62.8009,0.248906
63.5398,0.248117
64.2786,0.247864
65.0174,0.247179
65.7563,0.24705
66.4951,0.246607
67.2339,0.246919
67.9728,0.246517
68.7116,0.246385
69.4504,0.246099
70.1893,0.246064
70.9281,0.246652
71.6669,0.246497
72.4058,0.24632
73.1446,0.246117
73.8834,0.246272
74.6223,0.246629
75.3611,0.246861
76.0999,0.248117
76.8388,0.248043
77.5776,0.24828
78.3165,0.248738
79.0553,0.248933
79.7941,0.249592
80.533,0.250998
81.2718,0.251449
82.0106,0.252481
82.7495,0.252844
83.4883,0.253392
84.2271,0.253755
84.966,0.254492
85.7048,0.254452
86.4436,0.254808
87.1825,0.255211
87.9213,0.255423
88.6601,0.254923
89.399,0.255332
90.1378,0.25581
90.8766,0.257111
91.6155,0.25792
92.3543,0.259054
93.0931,0.259813
93.832,0.260865
94.5708,0.261774
95.3096,0.262786
96.0485,0.264152
96.7873,0.265023
97.5261,0.266336
98.265,0.267132
99.0038,0.26832
99.7427,0.269662
100.481,0.270797
101.22,0.27144
101.959,0.272836
102.698,0.274085
103.437,0.275296
104.176,0.276605
104.914,0.278396
105.653,0.27917
106.392,0.28071
107.131,0.282061
107.87,0.283759
108.609,0.284873
109.348,0.286251
110.086,0.287306
110.825,0.288943
111.564,0.290427
112.303,0.292074
113.042,0.293935
113.781,0.295358
114.519,0.296747
115.258,0.298603
115.997,0.300526
116.736,0.30179
117.475,0.303299
118.214,0.304805
118.952,0.306539
119.691,0.308099
120.43,0.309743
121.169,0.31148
121.908,0.31328
122.647,0.315641
123.385,0.317934
124.124,0.320078
124.863,0.321853
125.602,0.323239
126.341,0.325216
127.08,0.327729
127.818,0.329383
128.557,0.331467
129.296,0.333738
130.035,0.335473
130.774,0.337036
131.513,0.338747
132.251,0.340533
132.99,0.343234
133.729,0.344967
134.468,0.34674
135.207,0.348251
135.946,0.349904
136.684,0.351875
137.423,0.353936
138.162,0.356069
138.901,0.357485
139.64,0.359048
140.379,0.361014
141.117,0.362522
141.856,0.364148
142.595,0.365684
143.334,0.366947
144.073,0.368277
144.812,0.368797
145.55,0.369854
146.289,0.371758
147.028,0.372709
147.767,0.374406
148.506,0.375924
149.245,0.377434
149.983,0.378209
150.722,0.379009
151.461,0.379895
152.2,0.380379
152.939,0.382113
153.678,0.383249
154.416,0.383957
155.155,0.384867
155.894,0.38489
156.633,0.385855
157.372,0.386263
158.111,0.387063
158.849,0.38797
159.588,0.388687
160.327,0.389507
161.066,0.388002
161.805,0.386795
162.544,0.386877
163.282,0.386908
164.021,0.387126
164.76,0.387616
165.499,0.388044
166.238,0.389115
166.977,0.389458
167.715,0.390407
168.454,0.390348
169.193,0.389969
169.932,0.38935
170.671,0.389143
171.41,0.38981
172.148,0.389485
172.887,0.389814
173.626,0.390475
174.365,0.390362
175.104,0.390788
175.843,0.390185
176.581,0.389924
177.32,0.389545
178.059,0.390588
178.798,0.390479
179.537,0.390106
180.276,0.391001
181.014,0.390834
181.753,0.391098
182.492,0.391145
183.231,0.390981
183.97,0.391119
184.709,0.390666
185.447,0.390527
186.186,0.390441
186.925,0.390934
187.664,0.390682
188.403,0.390462
189.142,0.390624
189.88,0.390287
190.619,0.390504
191.358,0.390332
192.097,0.390536
192.836,0.390005
193.575,0.389603
194.313,0.390152
195.052,0.389548
195.791,0.389706
196.53,0.389359
197.269,0.389081
198.008,0.389206
198.746,0.389194
199.485,0.389004
200.224,0.388364
200.963,0.388252
201.702,0.388036
202.441,0.387725
203.179,0.387661
203.918,0.387171
204.657,0.38672
205.396,0.386229
206.135,0.386292
206.874,0.386
207.612,0.385749
208.351,0.385188
209.09,0.384831
209.829,0.384609
210.568,0.383947
211.307,0.383542
212.045,0.383492
212.784,0.383001
213.523,0.382871
214.262,0.381793
215.001,0.381407
215.74,0.381299
216.478,0.380921
217.217,0.380365
217.956,0.380004
218.695,0.379891
219.434,0.379645
220.173,0.379058
220.912,0.378598
221.65,0.377964
222.389,0.377669
223.128,0.377691
223.867,0.377198
224.606,0.376446
225.345,0.376077
226.083,0.375734
226.822,0.375304
227.561,0.375278
228.3,0.374435
229.039,0.374223
229.778,0.373681
230.516,0.373211
231.255,0.372927
231.994,0.372243
232.733,0.372075
233.472,0.371663
234.211,0.371008
234.949,0.370871
235.688,0.369948
236.427,0.370226
237.166,0.369357
237.905,0.368904
238.644,0.368429
239.382,0.367835
240.121,0.367699
240.86,0.367192
241.599,0.366706
242.338,0.366252
243.077,0.365956
243.815,0.365724
244.554,0.365135
245.293,0.364797
246.032,0.364008
246.771,0.363879
247.51,0.363564
248.248,0.362893
248.987,0.362875
249.726,0.362037
250.465,0.361861
251.204,0.3615
251.943,0.360691
252.681,0.360249
253.42,0.359929
254.159,0.360072
254.898,0.359669
255.637,0.359179
256.376,0.358713
257.114,0.358513
257.853,0.357786
258.592,0.356733
259.331,0.356821
260.07,0.356648
260.809,0.356348
261.547,0.355672
262.286,0.355105
263.025,0.354919
263.764,0.354444
264.503,0.35421
265.242,0.353703
265.98,0.353144
266.719,0.352836
267.458,0.352473
268.197,0.352113
268.936,0.351612
269.675,0.351068
270.413,0.350693
271.152,0.350333
271.891,0.350066
272.63,0.349496
273.369,0.349716
274.108,0.349411
274.846,0.34866
275.585,0.348355
276.324,0.347833
277.063,0.34722
277.802,0.346935
278.541,0.346524
279.279,0.346107
280.018,0.345591
280.757,0.345461
281.496,0.3447
282.235,0.344703
282.974,0.343909
283.712,0.344002
284.451,0.343726
285.19,0.342867
285.929,0.342799
286.668,0.342867
287.407,0.342307
288.145,0.341831
288.884,0.34155
289.623,0.341152
290.362,0.340974
291.101,0.340769
291.84,0.345906
292.578,0.369234
293.317,0.387821
294.056,0.403949
294.795,0.416803
295.534,0.425063
296.273,0.428791
297.011,0.428762
297.75,0.425902
298.489,0.421429
299.228,0.416391
299.967,0.41036
300.706,0.404434
301.444,0.398143
302.183,0.392356
302.922,0.385038
303.661,0.379465
304.4,0.37306
305.139,0.367676
305.877,0.362881
306.616,0.35723
307.355,0.352389
308.094,0.347996
308.833,0.3431
309.572,0.340098
310.31,0.335091
311.049,0.332532
311.788,0.329125
312.527,0.325387
313.266,0.322423
314.005,0.319726
314.743,0.316233
315.482,0.313147
316.221,0.311504
316.96,0.309252
317.699,0.307058
318.438,0.304922
319.176,0.302976
319.915,0.301851
320.654,0.299607
321.393,0.297608
322.132,0.295828
322.871,0.294748
323.609,0.293348
324.348,0.292139
325.087,0.290987
325.826,0.289504
326.565,0.288259
327.304,0.287295
328.043,0.286314
328.781,0.285034
329.52,0.283989
330.259,0.282361
330.998,0.2814
331.737,0.280713
332.476,0.279568
333.214,0.278301
333.953,0.278167
334.692,0.276574
335.431,0.275941
336.17,0.274951
336.909,0.273857
337.647,0.273317
338.386,0.271955
339.125,0.270914
339.864,0.269989
340.603,0.268402
341.342,0.267982
342.08,0.267974
342.819,0.266628
343.558,0.264023
344.297,0.261897
345.036,0.261079
345.775,0.259713
346.513,0.258991
347.252,0.259302
347.991,0.259365
348.73,0.258336
349.469,0.257715
350.208,0.256873
350.946,0.25585
351.685,0.255574
352.424,0.253985
353.163,0.252572
353.902,0.251346
354.641,0.249709
355.379,0.248614
356.118,0.248313
356.857,0.247857
357.596,0.247945
358.335,0.247003
359.074,0.247211
359.812,0.246913
360.551,0.246185
361.29,0.245795
362.029,0.243555
362.768,0.241014
363.507,0.238776
364.245,0.237554
364.984,0.237462
365.723,0.238257
366.462,0.239202
367.201,0.240315
367.94,0.240252
368.678,0.239614
369.417,0.238415
370.156,0.23752
370.895,0.236281
371.634,0.234197
372.373,0.232489
373.111,0.230954
373.85,0.230859
374.589,0.231694
375.328,0.23087
376.067,0.230828
376.806,0.23062
377.544,0.230301
378.283,0.230833
379.022,0.229607
379.761,0.228863
380.5,0.227472
381.239,0.229325
381.977,0.228895
382.716,0.22733
383.455,0.225731
384.194,0.224626
384.933,0.223156
385.672,0.220858
386.41,0.22006
387.149,0.220171
387.888,0.222458
388.627,0.223875
389.366,0.225029
390.105,0.225398
390.843,0.225485
391.582,0.225241
392.321,0.225061
393.06,0.224323
393.799,0.223255
394.538,0.220586
395.276,0.217236
396.015,0.214969
396.754,0.214272
397.493,0.215403
398.232,0.216766
398.971,0.217728
399.709,0.218726
400.448,0.219836
401.187,0.220832
401.926,0.221771
402.665,0.22237
403.404,0.221779
404.142,0.221741
404.881,0.221209
405.62,0.220235
406.359,0.219589
407.098,0.218231
407.837,0.216828
408.575,0.216143
409.314,0.216813
410.053,0.218393
410.792,0.2198
411.531,0.220151
412.27,0.220151
413.008,0.220233
413.747,0.219721
414.486,0.219398
415.225,0.218512
415.964,0.218544
416.703,0.21939
417.441,0.218893
418.18,0.218141
418.919,0.217019
419.658,0.215659
420.397,0.214467
421.136,0.212465
421.874,0.209663
422.613,0.208785
423.352,0.209229
424.091,0.210638
424.83,0.212623
425.569,0.214664
426.307,0.217686
427.046,0.221479
427.785,0.22293
428.524,0.222897
429.263,0.22296
430.002,0.221961
430.74,0.221792
431.479,0.220969
432.218,0.220634
432.957,0.219766
433.696,0.217673
434.435,0.215227
435.173,0.21326
435.912,0.211578
436.651,0.211988
437.39,0.215383
438.129,0.217695
438.868,0.219534
439.607,0.220906
440.345,0.220679
441.084,0.220351
441.823,0.220047
442.562,0.219687
443.301,0.219052
444.04,0.218726
444.778,0.218804
445.517,0.217736
446.256,0.216315
446.995,0.213395
447.734,0.211812
448.473,0.209782
449.211,0.209331
449.95,0.212944
450.689,0.215041
451.428,0.218278
452.167,0.219608
452.906,0.220005
453.644,0.219837
454.383,0.219791
455.122,0.218932
455.861,0.218621
456.6,0.218064
457.339,0.2173
458.077,0.217041
458.816,0.217869
459.555,0.216601
460.294,0.213599
461.033,0.211024
461.772,0.209603
462.51,0.209536
463.249,0.209708
463.988,0.21197
464.727,0.214426
465.466,0.21593
466.205,0.216968
466.943,0.217203
467.682,0.217387
468.421,0.217254
469.16,0.216746
469.899,0.216949
470.638,0.21611
471.376,0.216129
472.115,0.21693
472.854,0.216829
473.593,0.213602
474.332,0.210872
475.071,0.209267
475.809,0.2085
476.548,0.208161
477.287,0.208685
478.026,0.209591
478.765,0.211851
479.504,0.213508
480.242,0.214799
480.981,0.215175
481.72,0.215693
482.459,0.215281
483.198,0.214965
483.937,0.214525
484.675,0.214112
485.414,0.213709
486.153,0.214784
486.892,0.212895
487.631,0.21022
488.37,0.208021
489.108,0.206275
489.847,0.205535
490.586,0.205769
491.325,0.206403
492.064,0.207858
492.803,0.210433
493.541,0.211768
494.28,0.212899
495.019,0.212678
495.758,0.212931
496.497,0.212753
497.236,0.213114
497.974,0.212648
498.713,0.211975
499.452,0.211962
500.191,0.213181
500.93,0.210494
501.669,0.208268
502.407,0.206154
503.146,0.204477
503.885,0.203293
504.624,0.203926
505.363,0.204907
506.102,0.205952
506.84,0.207722
507.579,0.209323
508.318,0.210423
509.057,0.210402
509.796,0.210502
510.535,0.210389
511.273,0.210147
512.012,0.209746
512.751,0.209121
513.49,0.209408
514.229,0.209808
514.968,0.210338
515.706,0.207698
516.445,0.205129
517.184,0.202549
517.923,0.201421
518.662,0.201639
519.401,0.201712
520.139,0.202466
520.878,0.204605
521.617,0.206489
522.356,0.207561
523.095,0.20797
523.834,0.208368
524.572,0.208789
525.311,0.208256
526.05,0.208791
526.789,0.208238
527.528,0.208167
528.267,0.2081
529.005,0.208305
529.744,0.206739
530.483,0.203821
531.222,0.201221
531.961,0.200405
532.7,0.199857
533.438,0.200053
534.177,0.200752
534.916,0.20278
535.655,0.204663
536.394,0.205818
537.133,0.206174
537.871,0.20681
538.61,0.206728
539.349,0.206415
540.088,0.206407
540.827,0.206166
541.566,0.20544
542.304,0.205342
543.043,0.205644
543.782,0.206119
544.521,0.204702
545.26,0.201121
545.999,0.199443
546.738,0.197931
547.476,0.197169
548.215,0.19725
548.954,0.19787
549.693,0.198749
550.432,0.200698
551.171,0.202393
551.909,0.203079
552.648,0.203434
553.387,0.20357
554.126,0.203481
554.865,0.203107
555.604,0.202622
556.342,0.202857
557.081,0.20318
557.82,0.203199
558.559,0.201486
559.298,0.19933
560.037,0.197452
560.775,0.195535
561.514,0.194636
562.253,0.194571
562.992,0.195785
563.731,0.197114
564.47,0.198731
565.208,0.199765
565.947,0.200445
566.686,0.200674
567.425,0.201147
568.164,0.200207
568.903,0.200194
569.641,0.199619
570.38,0.200132
571.119,0.200609
571.858,0.201064
572.597,0.199008
573.336,0.196762
574.074,0.194903
574.813,0.193551
575.552,0.192131
576.291,0.192411
577.03,0.192065
577.769,0.193716
578.507,0.195708
579.246,0.19666
579.985,0.196979
580.724,0.197801
581.463,0.197878
582.202,0.197536
582.94,0.197118
583.679,0.196647
584.418,0.196875
585.157,0.19616
585.896,0.196727
586.635,0.19733
587.373,0.196858
588.112,0.195049
588.851,0.193087
589.59,0.190723
590.329,0.189365
591.068,0.188811
591.806,0.189344
592.545,0.189975
593.284,0.191607
594.023,0.192745
594.762,0.193526
595.501,0.193747
596.239,0.193951
596.978,0.194157
597.717,0.193584
598.456,0.19336
599.195,0.193769
599.934,0.193125
600.672,0.192327
601.411,0.192004
602.15,0.1919
602.889,0.191633
603.628,0.192241
604.367,0.193517
605.105,0.194329
605.844,0.19306
606.583,0.190641
607.322,0.189049
608.061,0.18601
608.8,0.183181
609.538,0.177768
610.277,0.00287243
611.016,0.00278077
611.755,0.00258627
612.494,0.0023851
613.233,0.0023182
613.971,0.0026403
614.71,0.00235687
615.449,0.00214582
616.188,0.002424
616.927,0.002096
617.666,0.00229874
618.404,0.00215967
619.143,0.00217909
619.882,0.00182165
620.621,0.00206352
621.36,0.00233646
622.099,0.00244167
622.837,0.00252916
623.576,0.00229878
624.315,0.00252225
625.054,0.00194702
625.793,0.00245389
626.532,0.00251982
627.27,0.00240904
628.009,0.00282058
628.748,0.00276737
629.487,0.00268735
630.226,0.00254638
630.965,0.00213653
631.703,0.00249472
632.442,0.00191032
633.181,0.00213315
633.92,0.00235206
634.659,0.00191708
635.398,0.00242675
636.136,0.00214027
636.875,0.00200101
637.614,0.00252665
638.353,0.00236186
639.092,0.00244959
639.831,0.00215596
640.569,0.0020902
641.308,0.00252955
642.047,0.00260996
642.786,0.00270652
643.525,0.0020403
644.264,0.0021473
645.002,0.00224034
645.741,0.00245702
646.48,0.00234835
647.219,0.00280559
647.958,0.00220848
648.697,0.00209673
649.435,0.0023505
650.174,0.00212568
650.913,0.00241809
651.652,0.0030322
652.391,0.00278483
653.13,0.00259085
653.868,0.00239755
654.607,0.00250926
655.346,0.00233076
656.085,0.00228898
656.824,0.00270681
657.563,0.00261436
658.302,0.00243389
659.04,0.00207396
659.779,0.00230213
660.518,0.00254207
661.257,0.00247104
661.996,0.00271062
662.735,0.00212775
663.473,0.00264665
664.212,0.00245493
664.951,0.00260832
665.69,0.00259614
666.429,0.00232928
667.168,0.00270652
667.906,0.00313128
668.645,0.00258864
669.384,0.00284734
670.123,0.00239579
670.862,0.00240807
671.601,0.00227331
672.339,0.00219096
673.078,0.00253711
673.817,0.002353
674.556,0.00270428
675.295,0.00279142
676.034,0.00284285
676.772,0.0025491
677.511,0.00267349
678.25,0.00267826
678.989,0.00262252
679.728,0.00255171
680.467,0.00251059
681.205,0.00251902
681.944,0.00258648
682.683,0.00235075
683.422,0.00280572
684.161,0.00266801
684.9,0.00270842
685.638,0.00274813
686.377,0.00218401
687.116,0.00278324
687.855,0.00296931
688.594,0.00260974
689.333,0.00256292
690.071,0.00258136
690.81,0.00250644
691.549,0.00261283
692.288,0.00299899
693.027,0.00296672
693.766,0.00276173
694.504,0.00314524
695.243,0.00282201
695.982,0.00291228
696.721,0.00317664
697.46,0.00280329
698.199,0.00283617
698.937,0.00276759
699.676,0.00285323
700.415,0.00229623
701.154,0.00281076
701.893,0.002843
702.632,0.00293113
703.37,0.00257266
704.109,0.00257951
704.848,0.00247752
705.587,0.00242288
706.326,0.00244907
707.065,0.00235989
707.803,0.00205797
708.542,0.00271269
709.281,0.00272187
710.02,0.00261893
710.759,0.00235601
711.498,0.00232208
712.236,0.00252265
712.975,0.00229451
713.714,0.00199759
714.453,0.00232649
715.192,0.00197886
715.931,0.0023899
716.669,0.00270283
717.408,0.00266662
718.147,0.00252995
718.886,0.00240331
719.625,0.00249587
720.364,0.00262861
721.102,0.00245952
721.841,0.00258922
722.58,0.00223809
723.319,0.00257057
724.058,0.00224115
724.797,0.00252649
725.535,0.00305188
726.274,0.00313772
727.013,0.00323044
727.752,0.00324408
728.491,0.0027559
729.23,0.00230734
729.968,0.00269672
730.707,0.00311094
731.446,0.00308645
732.185,0.00249076
732.924,0.00265884
733.663,0.00268198
734.401,0.00281034
735.14,0.00290424
735.879,0.00272653
736.618,0.00256983
737.357,0.00260244
738.096,0.00222239
738.834,0.00271906
739.573,0.00298341
740.312,0.00236745
741.051,0.00209872
741.79,0.00199868
742.529,0.0021395
743.267,0.00210108
744.006,0.00226192
744.745,0.00220818
745.484,0.00193588
746.223,0.00254291
746.962,0.0023408
747.7,0.00245086
748.439,0.00219446
749.178,0.0022977
749.917,0.00226636
750.656,0.0023276
751.395,0.00236211
752.133,0.00250201
752.872,0.00270298
753.611,0.00245586
754.35,0.00248137
755.089,0.00222695
755.828,0.00250032
756.566,0.00239031
757.305,0.00215221
758.044,0.0022797
758.783,0.00227208
759.522,0.00247862
760.261,0.00252413
760.999,0.0023881
761.738,0.00212869
762.477,0.00237835
763.216,0.00255445
763.955,0.00235708
764.694,0.00238826
765.433,0.00243117
766.171,0.00220458
766.91,0.00258235
767.649,0.00209411
768.388,0.00225604
769.127,0.00226689
769.866,0.00255173
770.604,0.00242117
771.343,0.00260545
772.082,0.00247933
772.821,0.00271417
773.56,0.00264477
774.299,0.00259783
775.037,0.00256474
775.776,0.00275676
776.515,0.00272291
777.254,0.00259051
777.993,0.00264903
778.732,0.00310929
779.47,0.00231314
780.209,0.00238259
780.948,0.00233104
781.687,0.0025
782.426,0.00281425
783.165,0.00287605
783.903,0.00265836
784.642,0.00242928
785.381,0.00253748
786.12,0.00276512
786.859,0.00231021
787.598,0.00269656
788.336,0.0030804
789.075,0.00327985
789.814,0.00294868
790.553,0.00289929
791.292,0.00293853
792.031,0.00255517
792.769,0.0024539
793.508,0.003018
794.247,0.00261237
794.986,0.00289742
795.725,0.00265253
796.464,0.00281264
797.202,0.00271477
797.941,0.00323525
798.68,0.00293322
799.419,0.00295956
800.158,0.00265444
800.897,0.00298939
801.635,0.00279542
802.374,0.00276963
803.113,0.00272414
803.852,0.0025831
804.591,0.00270114
805.33,0.0027209
806.068,0.00255317
806.807,0.0027627
807.546,0.00249513
808.285,0.00229156
809.024,0.00272057
809.763,0.00264478
810.501,0.00244235
811.24,0.00230224
811.979,0.00244873
812.718,0.00195619
813.457,0.00205518
814.196,0.00196227
814.934,0.00200531
815.673,0.00238052
816.412,0.00219362
817.151,0.00210255
817.89,0.00208535
818.629,0.00234345
819.367,0.00202048
820.106,0.00219782
820.845,0.00219583
821.584,0.00228517
822.323,0.00213004
823.062,0.00231069
823.8,0.00206738
824.539,0.00263034
825.278,0.00228112
826.017,0.00216425
826.756,0.00229538
827.495,0.00214198
828.233,0.00236369
828.972,0.00249055
829.711,0.00264128
830.45,0.0021103
831.189,0.00245017
831.928,0.00240653
832.666,0.00190797
833.405,0.00230842
834.144,0.00231346
834.883,0.00232567
835.622,0.00246489
836.361,0.00185179
837.099,0.00202296
837.838,0.00225114
838.577,0.00237874
839.316,0.00216023
840.055,0.00221244
840.794,0.00212821
841.532,0.00255838
842.271,0.00276968
843.01,0.00212495
843.749,0.00226366
844.488,0.00214327
845.227,0.002156
845.965,0.00233717
846.704,0.00220579
847.443,0.00232389
848.182,0.00238547
848.921,0.00228346
849.66,0.00226772
850.398,0.00266686
851.137,0.00258121
851.876,0.00226605
852.615,0.0022814
853.354,0.00188916
854.093,0.00229443
854.831,0.0026076
855.57,0.00240095
856.309,0.00220616
857.048,0.00241734
857.787,0.00230544
858.526,0.00262471
859.264,0.00281093
860.003,0.00299593
860.742,0.00233848
861.481,0.00236334
862.22,0.00265599
862.959,0.00233672
863.697,0.00249438
864.436,0.00219536
865.175,0.00267046
865.914,0.00256981
866.653,0.0018731
867.392,0.00195968
868.13,0.0022928
868.869,0.00245437
869.608,0.00248894
870.347,0.00256913
871.086,0.00261407
871.825,0.00204131
872.563,0.00217994
873.302,0.00229025
874.041,0.00215628
874.78,0.00213475
875.519,0.00220957
876.258,0.00231747
876.997,0.00230902
877.735,0.00265131
878.474,0.00201984
879.213,0.00232922
879.952,0.00260121
880.691,0.00237607
881.43,0.00227242
882.168,0.00224299
882.907,0.00238772
883.646,0.00242279
884.385,0.00248457
885.124,0.00213909
885.863,0.00231842
886.601,0.00246218
887.34,0.00238698
888.079,0.00245544
888.818,0.002696
889.557,0.00287132
890.296,0.00247841
891.034,0.00255928
891.773,0.00206203
892.512,0.00216837
893.251,0.00273134
893.99,0.00225899
894.729,0.0022302
895.467,0.00208693
896.206,0.00229923
896.945,0.00193922
897.684,0.00251093
898.423,0.00247692
899.162,0.0026758
899.9,0.00309997
900.639,0.00281287
901.378,0.00308105
902.117,0.00289498
902.856,0.00263091
903.595,0.00262809
904.333,0.00282892
905.072,0.00315202
905.811,0.00319244
906.55,0.00299083
907.289,0.00329895
908.028,0.00291044
908.766,0.00283233
909.505,0.0029506
910.244,0.00229763
910.983,0.00249343
911.722,0.00261971
912.461,0.00251598
913.199,0.00294755
913.938,0.00287748
914.677,0.00291776
915.416,0.00281024
916.155,0.00291722
916.894,0.00237639
917.632,0.00274295
918.371,0.00277007
919.11,0.00234623
919.849,0.00223139
920.588,0.00195651
921.327,0.00202088
922.065,0.0020448
922.804,0.00210983
923.543,0.00159649
924.282,0.00190103
925.021,0.00228105
925.76,0.00202014
926.498,0.00187776
927.237,0.00239589
927.976,0.00193692
928.715,0.00245936
929.454,0.00253394
930.193,0.00223195
930.931,0.00252104
931.67,0.002052
932.409,0.00185831
933.148,0.00212307
933.887,0.00195802
934.626,0.00214911
935.364,0.00229446
936.103,0.00207583
936.842,0.00230766
937.581,0.00229619
938.32,0.00217352
939.059,0.00217097
939.797,0.00243268
940.536,0.002615
941.275,0.00243182
942.014,0.00250879
942.753,0.00216332
943.492,0.00263779
944.23,0.00253345
944.969,0.00241226
945.708,0.00219006
946.447,0.00230179
947.186,0.00235957
947.925,0.0023792
948.663,0.00233341
949.402,0.00241813
950.141,0.00274954
950.88,0.00263567
951.619,0.00267303
952.358,0.00244286
953.096,0.00226144
953.835,0.00213525
954.574,0.00255393
955.313,0.00235195
956.052,0.00200067
956.791,0.00214728
957.529,0.00202398
958.268,0.00204083
959.007,0.00172054
959.746,0.00189642
960.485,0.00209438
961.224,0.00240997
961.962,0.00203119
962.701,0.00214399
963.44,0.00194246
964.179,0.0022302
964.918,0.00173884
965.657,0.00206943
966.395,0.00253703
967.134,0.00171893
967.873,0.00158903
968.612,0.00198592
969.351,0.00212438
970.09,0.00221843
970.828,0.00212478
971.567,0.00221224
972.306,0.00209959
973.045,0.00258197
973.784,0.00242499
974.523,0.00214089
975.261,0.0023085
976,0.00230209
976.739,0.00199454
977.478,0.00205445
978.217,0.00252394
978.956,0.00240802
979.694,0.00230272
980.433,0.00202845
981.172,0.00241732
981.911,0.00230603
982.65,0.00249552
983.389,0.00237186
984.128,0.00280746
984.866,0.00230532
985.605,0.00258582
986.344,0.00214335
987.083,0.00282356
987.822,0.00265056
988.561,0.00290308
989.299,0.00278989
990.038,0.00269893
990.777,0.00278101
991.516,0.00270843
992.255,0.00239393
992.994,0.00205105
993.732,0.00215873
994.471,0.00208762
995.21,0.00254759
995.949,0.0024269
996.688,0.00247477
997.427,0.00225636
998.165,0.00265228
998.904,0.00251169
999.643,0.00246265
1000.38,0.00249885
1001.12,0.00245313
1001.86,0.00253343
1002.6,0.00233847
1003.34,0.00236098
1004.08,0.00256504
1004.81,0.00242198
1005.55,0.00263441
1006.29,0.00287401
1007.03,0.00250654
1007.77,0.00259517
1008.51,0.00192576
1009.25,0.00224568
1009.99,0.00238815
1010.73,0.00224069
1011.46,0.00249823
1012.2,0.00230587
1012.94,0.00191851
1013.68,0.00250601
1014.42,0.00186549
1015.16,0.00214946
1015.9,0.00272849
1016.64,0.00205391
1017.38,0.00250379
1018.11,0.00257401
1018.85,0.00231501
1019.59,0.00244179
1020.33,0.00215688
1021.07,0.00216372
1021.81,0.00210522
1022.55,0.00246106
1023.29,0.00252583
1024.02,0.00230812
1024.76,0.00229321
1025.5,0.00284818
1026.24,0.00309788
1026.98,0.00271619
1027.72,0.0025311
1028.46,0.00248387
1029.2,0.00241073
1029.94,0.00243629
1030.67,0.00264611
1031.41,0.00237209
1032.15,0.00225294
1032.89,0.00224542
1033.63,0.00219097
1034.37,0.00248796
1035.11,0.00219639
1035.85,0.00216869
1036.58,0.00243534
1037.32,0.0019535
1038.06,0.00183925
1038.8,0.00254773
1039.54,0.0025961
1040.28,0.00247189
1041.02,0.00259521
1041.76,0.00212063
1042.5,0.00268834
1043.23,0.00247331
1043.97,0.00235537
1044.71,0.00178681
1045.45,0.00231869
1046.19,0.00214529
1046.93,0.0022127
1047.67,0.00257233
1048.41,0.00257723
1049.14,0.00219756
1049.88,0.00225489
1050.62,0.00228225
1051.36,0.00220403
1052.1,0.00200224
1052.84,0.00234666
1053.58,0.00221326
1054.32,0.00233044
1055.06,0.00194538
1055.79,0.00242103
1056.53,0.00216706
1057.27,0.00243901
1058.01,0.00230341
1058.75,0.0023408
1059.49,0.00232435
1060.23,0.00196415
1060.97,0.00215173
1061.71,0.0019845
1062.44,0.00278738
1063.18,0.00267585
1063.92,0.00258504
1064.66,0.00254079
1065.4,0.00247037
1066.14,0.00267157
1066.88,0.00213475
1067.62,0.00201253
1068.35,0.00212043
1069.09,0.00190631
1069.83,0.00198115
1070.57,0.00207863
1071.31,0.00231277
1072.05,0.0020848
1072.79,0.00211638
1073.53,0.00237939
1074.27,0.00277421
1075,0.00267833
1075.63,0.00255548