File: processed_data/40.0mA3msec-0.2mA27msec.csv
Capacity_mAh,Voltage_V
0.0,3.15192
0.133528,2.98371
0.267056,2.928438
0.400584,2.892037
0.534112,2.865495
0.66764,2.843806
0.801168,2.826364
0.934696,2.811286
1.06822,2.798949
1.20175,2.786728
1.33528,2.776319
1.46881,2.768465
1.60234,2.760946
1.73586,2.755057
1.86939,2.750353
2.00292,2.745912
2.13645,2.742631
2.26998,2.740477
2.4035,2.737946
2.53703,2.73555
2.67056,2.735613
2.80409,2.733632
2.93762,2.731816
3.07114,2.730457
3.20467,2.7291
3.3382,2.727231
3.47173,2.725635
3.60526,2.723657
3.73878,2.722034
3.87231,2.720781
4.00584,2.718552
4.13937,2.716278
4.2729,2.714124
4.40642,2.712173
4.53995,2.710359
4.67348,2.708281
4.80701,2.70693
4.94054,2.703328
5.07406,2.702013
5.20759,2.699317
5.34112,2.696284
5.47465,2.694038
5.60818,2.69223
5.7417,2.690476
5.87523,2.689526
6.00876,2.689303
6.14229,2.688266
6.27582,2.688116
6.40934,2.689196
6.54287,2.688562
6.6764,2.687788
6.80993,2.688159
6.94346,2.687516
7.07698,2.687078
7.21051,2.684932
7.34404,2.684679
7.47757,2.68561
7.61109,2.6852
7.74462,2.685352
7.87815,2.685355
8.01168,2.685803
8.14521,2.686749
8.27873,2.685577
8.41226,2.684649
8.54579,2.684838
8.67932,2.685254
8.81285,2.685515
8.94637,2.686839
9.0799,2.685981
9.21343,2.687349
9.34696,2.686225
9.48049,2.686761
9.61401,2.687184
9.74754,2.687638
9.88107,2.687724
10.0146,2.68741
10.1481,2.685652
10.2817,2.683623
10.4152,2.683189
10.5487,2.684029
10.6822,2.682548
10.8158,2.681923
10.9493,2.683833
11.0828,2.684552
11.2164,2.682457
11.3499,2.68237
11.4834,2.683192
11.6169,2.684298
11.7505,2.686218
11.884,2.686973
12.0175,2.685449
12.151,2.683692
12.2846,2.684298
12.4181,2.684732
12.5516,2.684597
12.6852,2.684874
12.8187,2.683587
12.9522,2.682819
13.0857,2.684415
13.2193,2.683334
13.3528,2.683421
13.4863,2.684103
13.6199,2.68418
13.7534,2.683512
13.8869,2.684079
14.0204,2.684897
14.154,2.684854
14.2875,2.684981
14.421,2.685664
14.5545,2.688093
14.6881,2.689705
14.8216,2.688877
14.9551,2.690364
15.0887,2.690989
15.2222,2.691542
15.3557,2.692012
15.4892,2.692086
15.6228,2.692324
15.7563,2.693105
15.8898,2.692393
16.0234,2.692942
16.1569,2.69252
16.2904,2.692198
16.4239,2.69356
16.5575,2.693263
16.691,2.694697
16.8245,2.695242
16.9581,2.695769
17.0916,2.696526
17.2251,2.696915
17.3586,2.697086
17.4922,2.697871
17.6257,2.698868
17.7592,2.69905
17.8927,2.698617
18.0263,2.699302
18.1598,2.699468
18.2933,2.700322
18.4269,2.700576
18.5604,2.700738
18.6939,2.701273
18.8274,2.702161
18.961,2.702329
19.0945,2.701485
19.228,2.702112
19.3616,2.701045
19.4951,2.702166
19.6286,2.702545
19.7621,2.703566
19.8957,2.702487
20.0292,2.702989
20.1627,2.702916
20.2963,2.702893
20.4298,2.702256
20.5633,2.702656
20.6968,2.702566
20.8304,2.702009
20.9639,2.702382
21.0974,2.702287
21.2309,2.703064
21.3645,2.70335
21.498,2.703181
21.6315,2.70243
21.7651,2.70337
21.8986,2.703249
22.0321,2.703398
22.1656,2.702873
22.2992,2.702447
22.4327,2.702687
22.5662,2.702497
22.6998,2.700064
22.8333,2.700811
22.9668,2.701497
23.1003,2.700522
23.2339,2.701336
23.3674,2.701336
23.5009,2.701348
23.6345,2.700999
23.768,2.700105
23.9015,2.699978
24.035,2.699141
24.1686,2.700536
24.3021,2.700472
24.4356,2.698369
24.5691,2.698224
24.7027,2.697874
24.8362,2.698984
24.9697,2.698503
25.1033,2.698902
25.2368,2.696245
25.3703,2.69641
25.5038,2.697577
25.6374,2.696286
25.7709,2.694502
25.9044,2.696539
26.038,2.696091
26.1715,2.695531
26.305,2.696124
26.4385,2.695153
26.5721,2.694476
26.7056,2.694503
26.8391,2.693352
26.9727,2.694713
27.1062,2.695423
27.2397,2.695496
27.3732,2.695857
27.5068,2.694931
27.6403,2.694367
27.7738,2.693109
27.9073,2.694238
28.0409,2.694458
28.1744,2.692372
28.3079,2.692494
28.4415,2.692602
28.575,2.690796
28.7085,2.690953
28.842,2.690489
28.9756,2.690861
29.1091,2.69167
29.2426,2.689807
29.3762,2.689276
29.5097,2.687657
29.6432,2.690197
29.7767,2.68869
29.9103,2.688835
30.0438,2.689474
30.1773,2.688176
30.3109,2.688705
30.4444,2.687429
30.5779,2.687477
30.7114,2.688842
30.845,2.688757
30.9785,2.688919
31.112,2.687139
31.2455,2.685897
31.3791,2.687145
31.5126,2.687466
31.6461,2.687639
31.7797,2.686778
31.9132,2.687388
32.0467,2.687122
32.1802,2.686942
32.3138,2.685314
32.4473,2.68429
32.5808,2.684472
32.7144,2.685177
32.8479,2.685781
32.9814,2.686259
33.1149,2.685702
33.2485,2.685401
33.382,2.684924
33.5155,2.684056
33.6491,2.685028
33.7826,2.684685
33.9161,2.684953
34.0496,2.685318
34.1832,2.685475
34.3167,2.685226
34.4502,2.685468
34.5837,2.685623
34.7173,2.684988
34.8508,2.684801
34.9843,2.684917
35.1179,2.684108
35.2514,2.684253
35.3849,2.683805
35.5184,2.683015
35.652,2.68293
35.7855,2.683354
35.919,2.681409
36.0526,2.681206
36.1861,2.680979
36.3196,2.680845
36.4531,2.680594
36.5867,2.680824
36.7202,2.680162
36.8537,2.679426
36.9873,2.679009
37.1208,2.679039
37.2543,2.678734
37.3878,2.677317
37.5214,2.677916
37.6549,2.677473
37.7884,2.677911
37.9219,2.676313
38.0555,2.67571
38.189,2.675448
38.3225,2.676348
38.4561,2.676035
38.5896,2.675783
38.7231,2.675751
38.8566,2.674899
38.9902,2.674134
39.1237,2.675842
39.2572,2.675259
39.3908,2.674986
39.5243,2.67274
39.6578,2.672939
39.7913,2.673335
39.9249,2.672253
40.0584,2.671032
40.1919,2.669941
40.3255,2.671357
40.459,2.671119
40.5925,2.670789
40.726,2.671654
40.8596,2.671036
40.9931,2.670743
41.1266,2.670836
41.2601,2.669713
41.3937,2.668843
41.5272,2.6685
41.6607,2.668806
41.7943,2.668442
41.9278,2.668545
42.0613,2.668427
42.1948,2.66748
42.3284,2.667594
42.4619,2.668198
42.5954,2.666368
42.729,2.665524
42.8625,2.664908
42.996,2.665514
43.1295,2.665445
43.2631,2.666009
43.3966,2.665545
43.5301,2.665044
43.6636,2.666035
43.7972,2.664919
43.9307,2.663372
44.0642,2.663698
44.1978,2.663415
44.3313,2.664763
44.4648,2.664535
44.5983,2.664892
44.7319,2.664762
44.8654,2.66513
44.9989,2.664475
45.1325,2.66454
45.266,2.664194
45.3995,2.66471
45.533,2.663849
45.6666,2.663033
45.8001,2.662797
45.9336,2.660995
46.0672,2.661366
46.2007,2.660543
46.3342,2.659351
46.4677,2.659423
46.6013,2.660142
46.7348,2.659188
46.8683,2.659214
47.0018,2.658522
47.1354,2.65851
47.2689,2.657879
47.4024,2.658426
47.536,2.657846
47.6695,2.657398
47.803,2.657814
47.9365,2.657048
48.0701,2.656845
48.2036,2.657014
48.3371,2.655981
48.4707,2.656143
48.6042,2.656637
48.7377,2.655766
48.8712,2.655551
49.0048,2.65597
49.1383,2.655077
49.2718,2.654679
49.4054,2.654137
49.5389,2.653782
49.6724,2.652755
49.8059,2.652416
49.9395,2.651793
50.073,2.650354
50.2065,2.650726
50.34,2.650715
50.4736,2.649323
50.6071,2.649551
50.7406,2.649511
50.8742,2.648808
51.0077,2.648533
51.1412,2.648566
51.2747,2.648262
51.4083,2.646282
51.5418,2.64893
51.6753,2.646724
51.8089,2.646632
51.9424,2.647373
52.0759,2.645933
52.2094,2.645805
52.343,2.646449
52.4765,2.645642
52.61,2.645725
52.7436,2.645387
52.8771,2.644753
53.0106,2.644397
53.1441,2.64446
53.2777,2.643516
53.4112,2.643538
53.5447,2.642966
53.6782,2.64357
53.8118,2.642411
53.9453,2.642162
54.0788,2.642527
54.2124,2.64113
54.3459,2.64061
54.4794,2.640529
54.6129,2.640398
54.7465,2.639484
54.88,2.639448
55.0135,2.638667
55.1471,2.638501
55.2806,2.637799
55.4141,2.637596
55.5476,2.636506
55.6812,2.637111
55.8147,2.636107
55.9482,2.635306
56.0818,2.6352
56.2153,2.634557
56.3488,2.634754
56.4823,2.633714
56.6159,2.632941
56.7494,2.632596
56.8829,2.63286
57.0164,2.632033
57.15,2.632071
57.2835,2.632047
57.417,2.631512
57.5506,2.631254
57.6841,2.630721
57.8176,2.630436
57.9511,2.629189
58.0847,2.628378
58.2182,2.62798
58.3517,2.627976
58.4853,2.627032
58.6188,2.627548
58.7523,2.626572
58.8858,2.626063
59.0194,2.626407
59.1529,2.625645
59.2864,2.62546
59.42,2.624973
59.5535,2.624874
59.687,2.624559
59.8205,2.624254
59.9541,2.6235
60.0876,2.622504
60.2211,2.622268
60.3546,2.620834
60.4882,2.620073
60.6217,2.621039
60.7552,2.619078
60.8888,2.619328
61.0223,2.619564
61.1558,2.619836
61.2893,2.619061
61.4229,2.619487
61.5564,2.618998
61.6899,2.618117
61.8235,2.617779
61.957,2.617518
62.0905,2.61757
62.224,2.617162
62.3576,2.616121
62.4911,2.615805
62.6246,2.615443
62.7582,2.614976
62.8917,2.6145
63.0252,2.613425
63.1587,2.613448
63.2923,2.612819
63.4258,2.612419
63.5593,2.612104
63.6928,2.611205
63.8264,2.610385
63.9599,2.611093
64.0934,2.609754
64.227,2.609678
64.3605,2.609464
64.494,2.608773
64.6275,2.608236
64.7611,2.608005
64.8946,2.607394
65.0281,2.60681
65.1617,2.606225
65.2952,2.605452
65.4287,2.605116
65.5622,2.605266
65.6958,2.603649
65.8293,2.602638
65.9628,2.601718
66.0964,2.601273
66.2299,2.601141
66.3634,2.601001
66.4969,2.600395
66.6305,2.599163
66.764,2.599087
66.8975,2.598614
67.031,2.597985
67.1646,2.597766
67.2981,2.597702
67.4316,2.597527
67.5652,2.596528
67.6987,2.596732
67.8322,2.595363
67.9657,2.595001
68.0993,2.594649
68.2328,2.593915
68.3663,2.59336
68.4999,2.59344
68.6334,2.592356
68.7669,2.59224
68.9004,2.591078
69.034,2.590481
69.1675,2.590139
69.301,2.5903
69.4346,2.588913
69.5681,2.588714
69.7016,2.588454
69.8351,2.587598
69.9687,2.586527
70.1022,2.58699
70.2357,2.585845
70.3692,2.58603
70.5028,2.585967
70.6363,2.585168
70.7698,2.584224
70.9034,2.583714
71.0369,2.583281
71.1704,2.582336
71.3039,2.581616
71.4375,2.581959
71.571,2.580981
71.7045,2.580769
71.8381,2.580457
71.9716,2.579177
72.1051,2.579182
72.2386,2.578655
72.3722,2.577961
72.5057,2.57774
72.6392,2.576933
72.7727,2.576653
72.9063,2.57572
73.0398,2.57509
73.1733,2.574329
73.3069,2.574051
73.4404,2.573312
73.5739,2.572194
73.7074,2.571772
73.841,2.571947
73.9745,2.57058
74.108,2.57031
74.2416,2.570591
74.3751,2.569489
74.5086,2.569146
74.6421,2.568712
74.7757,2.5678
74.9092,2.566859
75.0427,2.566626
75.1763,2.565234
75.3098,2.564754
75.4433,2.563907
75.5768,2.563688
75.7104,2.56284
75.8439,2.562313
75.9774,2.562257
76.1109,2.56044
76.2445,2.559927
76.378,2.559776
76.5115,2.558966
76.6451,2.558211
76.7786,2.558212
76.9121,2.557062
77.0456,2.556499
77.1792,2.556459
77.3127,2.555162
77.4462,2.554251
77.5798,2.553559
77.7133,2.553334
77.8468,2.552143
77.9803,2.552202
78.1139,2.550994
78.2474,2.55026
78.3809,2.550014
78.5145,2.549146
78.648,2.54943
78.7815,2.548528
78.915,2.548136
79.0486,2.546904
79.1821,2.546296
79.3156,2.545809
79.4491,2.544864
79.5827,2.544577
79.7162,2.543708
79.8497,2.543226
79.9833,2.542404
80.1168,2.542777
80.2503,2.541412
80.3838,2.540075
80.5174,2.540098
80.6509,2.539075
80.7844,2.537931
80.918,2.537225
81.0515,2.536967
81.185,2.535671
81.3185,2.536308
81.4521,2.534619
81.5856,2.533741
81.7191,2.532758
81.8527,2.532044
81.9862,2.530898
82.1197,2.531718
82.2532,2.529835
82.3868,2.529055
82.5203,2.528948
82.6538,2.527979
82.7873,2.527265
82.9209,2.526726
83.0544,2.52632
83.1879,2.525344
83.3215,2.525568
83.455,2.52478
83.5885,2.523137
83.722,2.522702
83.8556,2.521684
83.9891,2.520367
84.1226,2.520406
84.2562,2.519454
84.3897,2.518437
84.5232,2.51763
84.6567,2.518506
84.7903,2.517375
84.9238,2.516351
85.0573,2.515449
85.1909,2.51439
85.3244,2.514391
85.4579,2.514159
85.5914,2.512226
85.725,2.511865
85.8585,2.511182
85.992,2.509267
86.1255,2.508633
86.2591,2.508914
86.3926,2.507946
86.5261,2.507286
86.6597,2.506703
86.7932,2.504783
86.9267,2.504116
87.0602,2.503376
87.1938,2.502341
87.3273,2.501582
87.4608,2.500887
87.5944,2.499974
87.7279,2.498762
87.8614,2.49808
87.9949,2.497767
88.1285,2.496802
88.262,2.495859
88.3955,2.495121
88.5291,2.493978
88.6626,2.493064
88.7961,2.49205
88.9296,2.491396
89.0632,2.48992
89.1967,2.489498
89.3302,2.488739
89.4637,2.487818
89.5973,2.487494
89.7308,2.485797
89.8643,2.484357
89.9979,2.483555
90.1314,2.482174
90.2649,2.480425
90.3984,2.480075
90.532,2.478295
90.6655,2.477449
90.799,2.477039
90.9326,2.47563
91.0661,2.473939
91.1996,2.473704
91.3331,2.472551
91.4667,2.471255
91.6002,2.469779
91.7337,2.469649
91.8673,2.468255
92.0008,2.466738
92.1343,2.466312
92.2678,2.465284
92.4014,2.464989
92.5349,2.464406
92.6684,2.462998
92.8019,2.462039
92.9355,2.461728
93.069,2.46058
93.2025,2.459785
93.3361,2.45941
93.4696,2.4583
93.6031,2.457227
93.7366,2.455995
93.8702,2.454784
94.0037,2.453325
94.1372,2.452879
94.2708,2.452196
94.4043,2.449992
94.5378,2.449633
94.6713,2.447365
94.8049,2.446574
94.9384,2.446224
95.0719,2.444136
95.2055,2.442207
95.339,2.441587
95.4725,2.439987
95.606,2.438523
95.7396,2.437552
95.8731,2.436113
96.0066,2.435371
96.1401,2.433794
96.2737,2.432797
96.4072,2.431515
96.5407,2.429672
96.6743,2.429141
96.8078,2.427295
96.9413,2.426238
97.0748,2.424985
97.2084,2.423645
97.3419,2.422046
97.4754,2.421717
97.609,2.419684
97.7425,2.418318
97.876,2.417378
98.0095,2.415549
98.1431,2.4144
98.2766,2.41375
98.4101,2.411502
98.5437,2.410689
98.6772,2.409158
98.8107,2.407858
98.9442,2.406354
99.0778,2.404366
99.2113,2.402782
99.3448,2.40067
99.4783,2.399703
99.6119,2.398501
99.7454,2.396739
99.8789,2.39516
100.012,2.394084
100.146,2.391997
100.28,2.390141
100.413,2.389359
100.547,2.387407
100.68,2.386139
100.814,2.384637
100.947,2.382708
101.081,2.381506
101.214,2.380209
101.348,2.377848
101.481,2.376229
101.615,2.374957
101.748,2.372876
101.882,2.371508
102.015,2.369918
102.149,2.367743
102.282,2.365334
102.416,2.364106
102.549,2.362423
102.683,2.359848
102.817,2.358494
102.95,2.356114
103.084,2.35452
103.217,2.352839
103.351,2.349865
103.484,2.348005
103.618,2.346155
103.751,2.343548
103.885,2.341599
104.018,2.340034
104.152,2.337639
104.285,2.335313
104.419,2.3329
104.552,2.330893
104.686,2.328656
104.819,2.326641
104.953,2.324028
105.087,2.321516
105.22,2.31859
105.354,2.317704
105.487,2.314792
105.621,2.312217
105.754,2.309719
105.888,2.307167
106.021,2.304878
106.155,2.302645
106.288,2.299311
106.422,2.296588
106.555,2.294491
106.689,2.291063
106.822,2.288488
106.956,2.286404
107.089,2.282706
107.223,2.280638
107.356,2.2772
107.49,2.273977
107.624,2.271735
107.757,2.268694
107.891,2.265514
108.024,2.262372
108.158,2.259978
108.291,2.257452
108.425,2.253974
108.558,2.251231
108.692,2.248294
108.825,2.245437
108.959,2.241852
109.092,2.238747
109.226,2.235322
109.359,2.232411
109.493,2.229849
109.626,2.226472
109.76,2.22321
109.894,2.220471
110.027,2.21727
110.161,2.214063
110.294,2.211656
110.428,2.208144
110.561,2.204354
110.695,2.20187
110.828,2.197942
110.962,2.194926
111.095,2.19233
111.229,2.18699
111.362,2.170109
111.496,2.168468
111.629,2.165395
111.763,2.162947
111.896,2.161331
112.03,2.159014
112.164,2.157875
112.297,2.154416
112.431,2.145164
112.564,2.140388
112.698,2.134861
112.831,2.130348
112.965,2.125566
113.098,2.120324
113.232,2.114955
113.365,2.10931
113.499,2.103976
113.632,2.099144
113.766,2.093134
113.899,2.086377
114.033,2.081633
114.166,2.075942
114.3,2.069337
114.433,2.064168
114.567,2.057203
114.701,2.050764
114.834,2.045725
114.968,2.038619
115.101,2.031396
115.235,2.024306
115.368,2.015823
115.502,2.008871
115.635,2.002403
115.769,1.995121
115.902,1.987334
116.036,1.979029
116.169,1.97101
116.303,1.962783
116.436,1.956105
116.57,1.947268
116.703,1.938854
116.837,1.930597
116.971,1.920621
117.104,1.911355
117.238,1.901061
117.371,1.890758
117.505,1.880878
117.638,1.871543
117.772,1.861816
117.905,1.849922
118.039,1.840084
118.172,1.83083
118.306,1.818836
118.439,1.808248
118.573,1.796945
118.706,1.784822
118.84,1.773101
118.973,1.762084
119.107,1.749343
119.24,1.73645
119.374,1.725024
119.508,1.712574
119.641,1.700851
119.775,1.688774
119.908,1.674852
120.042,1.661975
120.175,1.649909
120.309,1.635161
120.442,1.622513
120.576,1.610255
120.709,1.596213
120.843,1.583269
120.976,1.570541
121.11,1.557225
121.243,1.543853
121.377,1.530302
121.51,1.516923
121.644,1.50368
121.778,1.490069
121.911,1.476766
122.045,1.463913
122.178,1.450934
122.312,1.439079
122.445,1.42568
122.579,1.413373
122.712,1.401855
122.846,1.389994
122.979,1.378079
123.113,1.36735
123.246,1.356121
123.38,1.344592
123.513,1.33398
123.647,1.322501
123.78,1.311532
123.914,1.30129
124.047,1.289998
124.181,1.278806
124.315,1.270028
124.448,1.259325
124.582,1.249027
124.715,1.239005
124.849,1.228572
124.982,1.218991
125.116,1.210261
125.249,1.200525
125.383,1.192049
125.516,1.182959
125.65,1.174791
125.783,1.166227
125.917,1.157934
126.05,1.149301
126.184,1.140551
126.317,1.132704
126.451,1.123908
126.585,1.11481
126.718,1.107379
126.852,1.099314
126.985,1.090354
127.119,1.082076
127.252,1.074682
127.386,1.066859
127.519,1.058952
127.653,1.052684
127.786,1.044437
127.92,1.036962
128.053,1.030504
128.187,1.023091
128.32,1.016355
128.454,1.010216
128.587,1.003163
128.721,0.996764
128.855,0.991486
128.988,0.983877
129.122,0.977362
129.255,0.96923
129.389,0.951967
129.522,0.943395
129.656,0.940113
129.789,0.935617
129.923,0.932454
130.056,0.930064
130.19,0.927654
130.323,0.925068
130.457,0.922822
130.59,0.921083
130.724,0.919036
130.857,0.917298
130.991,0.916104
131.124,0.914151
131.258,0.912271
131.392,0.912432
131.525,0.909965
131.659,0.909209
131.792,0.908891
131.926,0.908012
132.059,0.906613
132.193,0.906921
132.326,0.905879
132.46,0.905517
132.593,0.905698
132.727,0.905584
132.86,0.905055
132.994,0.90625
133.127,0.906119
133.261,0.905361
133.394,0.905737
133.528,0.904674
133.662,0.904424
133.795,0.904026
133.929,0.904428
134.062,0.904763
134.196,0.905341
134.329,0.905717
134.463,0.905245
134.596,0.905972
134.73,0.906839
134.863,0.906705
134.997,0.906469
135.13,0.907507
135.264,0.906842
135.397,0.907468
135.531,0.908131
135.664,0.907141
135.798,0.907336
135.931,0.90863
136.065,0.908406
136.199,0.908889
136.332,0.909598
136.466,0.908823
136.599,0.908714
136.733,0.909323
136.866,0.909219
137,0.910686
137.133,0.912836
137.267,0.912502
137.4,0.911777
137.534,0.912866
137.667,0.912674
137.801,0.912719
137.934,0.912991
138.068,0.912519
138.201,0.912506
138.335,0.913643
138.469,0.913989
138.602,0.913049
138.736,0.914121
138.869,0.914517
139.003,0.914299
139.136,0.914827
139.27,0.916313
139.403,0.916816
139.537,0.91757
139.67,0.91947
139.804,0.919992
139.937,0.920648
140.071,0.921891
140.204,0.921648
140.338,0.922493
140.471,0.922411
140.605,0.921641
140.738,0.922714
140.872,0.923912
141.006,0.923967
141.139,0.92489
141.273,0.925698
141.406,0.925811
141.54,0.926434
141.673,0.92805
141.807,0.928763
141.94,0.929483
142.074,0.931016
142.207,0.93131
142.341,0.932538
142.474,0.93409
142.608,0.93428
142.741,0.935835
142.875,0.936972
143.008,0.937857
143.142,0.938712
143.276,0.939026
143.409,0.940443
143.543,0.940969
143.676,0.94248
143.81,0.944422
143.943,0.945041
144.077,0.945771
144.21,0.947909
144.344,0.947564
144.477,0.949047
144.611,0.950695
144.744,0.951952
144.878,0.953154
145.011,0.954154
145.145,0.954139
145.278,0.954879
145.412,0.956402
145.545,0.956678
145.679,0.958071
145.813,0.959237
145.946,0.959718
146.08,0.960296
146.213,0.962031
146.347,0.962645
146.48,0.963191
146.614,0.964661
146.747,0.965352
146.881,0.965604
147.014,0.966378
147.148,0.966709
147.281,0.967685
147.415,0.968017
147.548,0.969552
147.682,0.969803
147.815,0.970484
147.949,0.972537
148.083,0.972698
148.216,0.973586
148.35,0.975015
148.483,0.975464
148.617,0.97591
148.75,0.977763
148.884,0.978144
149.017,0.978836
149.151,0.980504
149.284,0.980849
149.418,0.981727
149.551,0.983694
149.685,0.983326
149.818,0.984905
149.952,0.986434
150.085,0.987168
150.219,0.987943
150.353,0.989701
150.486,0.989861
150.62,0.991307
150.753,0.993173
150.887,0.993705
151.02,0.994253
151.154,0.995869
151.287,0.996689
151.421,0.997737
151.554,0.998778
151.688,1.000422
151.821,1.000454
151.955,1.001341
152.088,1.002721
152.222,1.002379
152.355,1.003397
152.489,1.005602
152.622,1.005997
152.756,1.006823
152.89,1.008874
153.023,1.009016
153.157,1.00918
153.29,1.01156
153.424,1.010808
153.557,1.013036
153.691,1.015097
153.824,1.015446
153.958,1.016642
154.091,1.018928
154.225,1.018963
154.358,1.02018
154.492,1.022309
154.625,1.022596
154.759,1.023041
154.892,1.025451
155.026,1.025613
155.16,1.026118
155.293,1.027981
155.427,1.02918
155.56,1.029675
155.694,1.03187
155.827,1.033432
155.961,1.033642
156.094,1.034932
156.228,1.036765
156.361,1.037978
156.495,1.038369
156.628,1.040615
156.762,1.03985
156.895,1.04129
157.029,1.043171
157.162,1.043214
157.296,1.044965
157.429,1.046283
157.563,1.046755
157.697,1.046987
157.83,1.04972
157.964,1.049717
158.097,1.050637
158.231,1.05296
158.364,1.052014
158.498,1.052836
158.631,1.055618
158.765,1.054897
158.898,1.055771
159.032,1.057801
159.165,1.058434
159.299,1.059393
159.432,1.061071
159.566,1.06183
159.699,1.062238
159.833,1.063401
159.967,1.064916
160.1,1.065292
160.234,1.066125
160.367,1.067805
160.501,1.068252
160.634,1.069534
160.768,1.071661
160.901,1.070861
161.035,1.072277
161.168,1.074136
161.302,1.073901
161.435,1.075377
161.569,1.077379
161.702,1.077378
161.836,1.078681
161.969,1.080462
162.103,1.080446
162.236,1.081551
162.37,1.082943
162.504,1.082509
162.637,1.083638
162.771,1.085621
162.904,1.085232
163.038,1.086069
163.171,1.087967
163.305,1.087981
163.438,1.088619
163.572,1.089928
163.705,1.090602
163.839,1.091597
163.972,1.092576
164.106,1.094405
164.239,1.093597
164.373,1.094313
164.506,1.095654
164.64,1.095883
164.774,1.097326
164.907,1.098828
165.041,1.097986
165.174,1.09876
165.308,1.100125
165.441,1.100442
165.575,1.101338
165.708,1.10335
165.842,1.103521
165.975,1.103928
166.109,1.105924
166.242,1.105947
166.376,1.107352
166.509,1.109171
166.643,1.108317
166.776,1.110497
166.91,1.11167
167.044,1.111105
167.177,1.112837
167.311,1.114255
167.444,1.115153
167.578,1.11549
167.711,1.116557
167.845,1.116611
167.978,1.117908
168.112,1.119311
168.245,1.120198
168.379,1.119612
168.512,1.121341
168.646,1.121902
168.779,1.122297
168.913,1.123499
169.046,1.125542
169.18,1.124896
169.313,1.125872
169.447,1.127637
169.581,1.127102
169.714,1.128377
169.848,1.130032
169.981,1.130094
170.115,1.130887
170.248,1.133126
170.382,1.13174
170.515,1.133466
170.649,1.135624
170.782,1.134466
170.916,1.135478
171.049,1.137428
171.183,1.136819
171.316,1.137123
171.45,1.138799
171.583,1.138728
171.717,1.138951
171.851,1.141291
171.984,1.141557
172.118,1.141188
172.251,1.143251
172.385,1.143612
172.518,1.143591
172.652,1.144047
172.785,1.145395
172.919,1.145246
173.052,1.146573
173.186,1.147878
173.319,1.146913
173.453,1.148145
173.586,1.149516
173.72,1.149856
173.853,1.149987
173.987,1.151606
174.12,1.150805
174.254,1.151772
174.388,1.153522
174.521,1.153266
174.655,1.153781
174.788,1.155378
174.922,1.155176
175.055,1.154866
175.189,1.15681
175.322,1.156344
175.456,1.157519
175.589,1.158228
175.723,1.158267
175.856,1.159179
175.99,1.159974
176.123,1.159683
176.257,1.160287
176.39,1.16067
176.524,1.161585
176.658,1.161233
176.791,1.162782
176.925,1.162719
177.058,1.163141
177.192,1.163147
177.325,1.16503
177.459,1.164869
177.592,1.16462
177.726,1.166539
177.859,1.166687
177.993,1.166459
178.126,1.168044
178.26,1.167127
178.393,1.167933
178.527,1.169366
178.66,1.168269
178.794,1.168885
178.927,1.170731
179.061,1.17066
179.195,1.170363
179.328,1.172101
179.462,1.171562
179.595,1.17215
179.729,1.174056
179.862,1.173215
179.996,1.172968
180.129,1.174383
180.263,1.174323
180.396,1.174189
180.53,1.174873
180.663,1.17472
180.797,1.174863
180.93,1.175299
181.064,1.176371
181.197,1.175853
181.331,1.1766
181.465,1.177751
181.598,1.177485
181.732,1.177857
181.865,1.179404
181.999,1.178641
182.132,1.178828
182.266,1.179957
182.399,1.178882
182.533,1.179572
182.666,1.180215
182.8,1.180058
182.933,1.180192
183.067,1.181445
183.2,1.180204
183.334,1.181585
183.467,1.182445
183.601,1.1819
183.735,1.182394
183.868,1.183085
184.002,1.182423
184.135,1.182829
184.269,1.183394
184.402,1.183445
184.536,1.183724
184.669,1.184494
184.803,1.183764
184.936,1.183835
185.07,1.184591
185.203,1.184798
185.337,1.184874
185.47,1.185191
185.604,1.186241
185.737,1.18601
185.871,1.18577
186.004,1.185963
186.138,1.185259
186.272,1.185359
186.405,1.186398
186.539,1.185639
186.672,1.185829
186.806,1.187562
186.939,1.186789
187.073,1.186511
187.206,1.187366
187.34,1.186949
187.473,1.187445
187.607,1.188906
187.74,1.187233
187.874,1.187685
188.007,1.188986
188.141,1.187099
188.274,1.187674
188.408,1.188087
188.542,1.186897
188.675,1.187174
188.809,1.187752
188.942,1.186814
189.076,1.186763
189.209,1.187822
189.343,1.186901
189.476,1.18692
189.61,1.187096
189.743,1.187313
189.877,1.186004
190.01,1.186708
190.144,1.187793
190.277,1.187052
190.411,1.186807
190.544,1.187694
190.678,1.186832
190.811,1.186869
190.945,1.18757
191.079,1.185439
191.212,1.185855
191.346,1.187186
191.479,1.186115
191.613,1.18591
191.746,1.186094
191.88,1.185311
192.013,1.184603
192.147,1.186318
192.28,1.185384
192.414,1.184475
192.547,1.185602
192.681,1.184363
192.814,1.184082
192.948,1.185749
193.081,1.184828
193.215,1.184111
193.349,1.185049
193.482,1.184639
193.616,1.184542
193.749,1.184082
193.883,1.184413
194.016,1.183535
194.15,1.18329
194.283,1.183588
194.417,1.182475
194.55,1.182482
194.684,1.183065
194.817,1.181252
194.951,1.181835
195.084,1.182281
195.218,1.180829
195.351,1.179743
195.485,1.181279
195.618,1.179557
195.752,1.1785
195.886,1.179969
196.019,1.178825
196.153,1.179207
196.286,1.179483
196.42,1.178492
196.553,1.178172
196.687,1.178746
196.82,1.177809
196.954,1.177674
197.087,1.179339
197.221,1.177438
197.354,1.177555
197.441,1.177871