File: processed_data/40.0mA1msec-0.2mA19msec.csv
Capacity_mAh,Voltage_V
0.0,3.132913
0.106458,3.033154
0.212917,2.993532
0.319375,2.96687
0.425834,2.946386
0.532292,2.930089
0.638751,2.916148
0.745209,2.903956
0.851668,2.893885
0.958126,2.883797
1.06458,2.875741
1.17104,2.8684
1.2775,2.861959
1.38396,2.855049
1.49042,2.849594
1.59688,2.844052
1.70334,2.839594
1.80979,2.834827
1.91625,2.830676
2.02271,2.827561
2.12917,2.824719
2.23563,2.822016
2.34209,2.819926
2.44855,2.817742
2.555,2.815865
2.66146,2.814151
2.76792,2.812546
2.87438,2.81142
2.98084,2.810136
3.0873,2.808997
3.19375,2.808218
3.30021,2.807119
3.40667,2.805773
3.51313,2.804327
3.61959,2.80571
3.72605,2.805062
3.83251,2.804844
3.93896,2.804502
4.04542,2.804109
4.15188,2.803222
4.25834,2.803157
4.3648,2.802564
4.47126,2.802157
4.57772,2.801154
4.68417,2.801193
4.79063,2.801423
4.89709,2.801651
5.00355,2.801702
5.11001,2.801637
5.21647,2.801329
5.32292,2.802129
5.42938,2.80127
5.53584,2.801241
5.6423,2.800037
5.74876,2.800533
5.85522,2.799766
5.96168,2.799335
6.06813,2.799074
6.17459,2.79919
6.28105,2.799174
6.38751,2.799496
6.49397,2.798895
6.60043,2.798541
6.70689,2.79847
6.81334,2.797263
6.9198,2.799286
7.02626,2.797691
7.13272,2.798336
7.23918,2.798519
7.34564,2.798792
7.45209,2.798444
7.55855,2.798782
7.66501,2.798483
7.77147,2.798532
7.87793,2.798331
7.98439,2.798318
8.09085,2.798095
8.1973,2.797998
8.30376,2.795645
8.41022,2.797361
8.51668,2.797254
8.62314,2.796786
8.7296,2.797069
8.83606,2.797331
8.94251,2.796823
9.04897,2.797023
9.15543,2.796815
9.26189,2.796335
9.36835,2.795897
9.47481,2.795812
9.58126,2.796098
9.68772,2.795836
9.79418,2.796487
9.90064,2.796534
10.0071,2.796167
10.1136,2.79441
10.22,2.795356
10.3265,2.795619
10.4329,2.795576
10.5394,2.796045
10.6458,2.796203
10.7523,2.795754
10.8588,2.795061
10.9652,2.794838
11.0717,2.794594
11.1781,2.793767
11.2846,2.794632
11.3911,2.794186
11.4975,2.794913
11.604,2.794182
11.7104,2.794014
11.8169,2.795995
11.9234,2.794754
12.0298,2.795535
12.1363,2.795298
12.2427,2.79522
12.3492,2.794319
12.4556,2.792518
12.5621,2.791395
12.6686,2.793842
12.775,2.794266
12.8815,2.793739
12.9879,2.793482
13.0944,2.793495
13.2009,2.793509
13.3073,2.793132
13.4138,2.792434
13.5202,2.792093
13.6267,2.791449
13.7331,2.793352
13.8396,2.79163
13.9461,2.792234
14.0525,2.791556
14.159,2.793291
14.2654,2.793488
14.3719,2.793803
14.4784,2.792017
14.5848,2.792252
14.6913,2.794702
14.7977,2.794508
14.9042,2.793298
15.0106,2.792563
15.1171,2.790791
15.2236,2.793099
15.33,2.792964
15.4365,2.793426
15.5429,2.791609
15.6494,2.791254
15.7559,2.792001
15.8623,2.792408
15.9688,2.791941
16.0752,2.792222
16.1817,2.793256
16.2881,2.793573
16.3946,2.792893
16.5011,2.792402
16.6075,2.792814
16.714,2.79249
16.8204,2.792859
16.9269,2.792276
17.0334,2.792593
17.1398,2.792408
17.2463,2.792128
17.3527,2.790101
17.4592,2.790278
17.5657,2.791074
17.6721,2.792287
17.7786,2.792713
17.885,2.793256
17.9915,2.793236
18.0979,2.793611
18.2044,2.793919
18.3109,2.794403
18.4173,2.794854
18.5238,2.793821
18.6302,2.789374
18.7367,2.791774
18.8432,2.7916
18.9496,2.790346
19.0561,2.79195
19.1625,2.792292
19.269,2.791206
19.3754,2.791615
19.4819,2.792368
19.5884,2.792953
19.6948,2.793925
19.8013,2.794178
19.9077,2.79385
20.0142,2.79429
20.1207,2.794261
20.2271,2.794196
20.3336,2.794022
20.44,2.795431
20.5465,2.795748
20.6529,2.795782
20.7594,2.795621
20.8659,2.795778
20.9723,2.795466
21.0788,2.795292
21.1852,2.795499
21.2917,2.795796
21.3982,2.795177
21.5046,2.79513
21.6111,2.794985
21.7175,2.794952
21.824,2.795031
21.9305,2.794796
22.0369,2.795043
22.1434,2.794437
22.2498,2.79474
22.3563,2.794929
22.4627,2.794158
22.5692,2.794042
22.6757,2.793509
22.7821,2.793269
22.8886,2.792826
22.995,2.792255
23.1015,2.79024
23.208,2.79183
23.3144,2.792226
23.4209,2.791261
23.5273,2.79033
23.6338,2.791245
23.7402,2.791719
23.8467,2.792385
23.9532,2.792995
24.0596,2.794789
24.1661,2.794617
24.2725,2.794366
24.379,2.791237
24.4855,2.788369
24.5919,2.788181
24.6984,2.788133
24.8048,2.786748
24.9113,2.785145
25.0177,2.784436
25.1242,2.794016
25.2307,2.794505
25.3371,2.795007
25.4436,2.794554
25.55,2.793951
25.6565,2.79396
25.763,2.793434
25.8694,2.793448
25.9759,2.793409
26.0823,2.792593
26.1888,2.793244
26.2952,2.793245
26.4017,2.793917
26.5082,2.794126
26.6146,2.792996
26.7211,2.792993
26.8275,2.793278
26.934,2.792516
27.0405,2.792392
27.1469,2.791816
27.2534,2.791643
27.3598,2.791749
27.4663,2.791939
27.5728,2.791948
27.6792,2.791753
27.7857,2.790651
27.8921,2.790702
27.9986,2.79061
28.105,2.789932
28.2115,2.78913
28.318,2.789394
28.4244,2.790107
28.5309,2.791869
28.6373,2.789981
28.7438,2.78921
28.8503,2.788795
28.9567,2.789241
29.0632,2.788866
29.1696,2.789296
29.2761,2.787694
29.3825,2.788286
29.489,2.789209
29.5955,2.78894
29.7019,2.790092
29.8084,2.791089
29.9148,2.791686
30.0213,2.790014
30.1278,2.791363
30.2342,2.789887
30.3407,2.78968
30.4471,2.78997
30.5536,2.789557
30.66,2.78974
30.7665,2.789851
30.873,2.789448
30.9794,2.788843
31.0859,2.788877
31.1923,2.788497
31.2988,2.788434
31.4053,2.790185
31.5117,2.788621
31.6182,2.788815
31.7246,2.788597
31.8311,2.788539
31.9375,2.788136
32.044,2.788128
32.1505,2.787833
32.2569,2.787695
32.3634,2.787537
32.4698,2.787509
32.5763,2.787462
32.6828,2.786783
32.7892,2.78661
32.8957,2.786715
33.0021,2.786208
33.1086,2.785562
33.2151,2.786186
33.3215,2.78571
33.428,2.785743
33.5344,2.785569
33.6409,2.785534
33.7473,2.78531
33.8538,2.784757
33.9603,2.784821
34.0667,2.784955
34.1732,2.784361
34.2796,2.78427
34.3861,2.784594
34.4926,2.784862
34.599,2.784222
34.7055,2.784375
34.8119,2.783543
34.9184,2.783984
35.0248,2.783988
35.1313,2.783962
35.2378,2.783694
35.3442,2.783389
35.4507,2.783365
35.5571,2.783036
35.6636,2.783117
35.7701,2.782945
35.8765,2.7766
35.983,2.77906
36.0894,2.779615
36.1959,2.779559
36.3023,2.779818
36.4088,2.779963
36.5153,2.780076
36.6217,2.779763
36.7282,2.779352
36.8346,2.779427
36.9411,2.77868
37.0476,2.779015
37.154,2.77904
37.2605,2.778914
37.3669,2.779548
37.4734,2.778876
37.5798,2.779029
37.6863,2.777354
37.7928,2.780561
37.8992,2.780907
38.0057,2.780835
38.1121,2.781447
38.2186,2.781126
38.3251,2.781486
38.4315,2.78155
38.538,2.781633
38.6444,2.781962
38.7509,2.781063
38.8574,2.781298
38.9638,2.781131
39.0703,2.781623
39.1767,2.781765
39.2832,2.781015
39.3896,2.781124
39.4961,2.781495
39.6026,2.781111
39.709,2.780858
39.8155,2.780796
39.9219,2.78048
40.0284,2.78048
40.1349,2.780182
40.2413,2.780455
40.3478,2.779834
40.4542,2.77955
40.5607,2.780049
40.6671,2.779962
40.7736,2.781629
40.8801,2.780719
40.9865,2.780361
41.093,2.780126
41.1994,2.779822
41.3059,2.778431
41.4124,2.780258
41.5188,2.779168
41.6253,2.778937
41.7317,2.778764
41.8382,2.778221
41.9446,2.778314
42.0511,2.779595
42.1576,2.778771
42.264,2.77984
42.3705,2.779705
42.4769,2.779358
42.5834,2.77888
42.6899,2.778555
42.7963,2.778334
42.9028,2.778296
43.0092,2.778878
43.1157,2.778292
43.2221,2.778369
43.3286,2.777783
43.4351,2.778174
43.5415,2.778106
43.648,2.77825
43.7544,2.778296
43.8609,2.778078
43.9674,2.778146
44.0738,2.777678
44.1803,2.77755
44.2867,2.777604
44.3932,2.777283
44.4997,2.777147
44.6061,2.777345
44.7126,2.777475
44.819,2.777383
44.9255,2.776907
45.0319,2.777139
45.1384,2.776764
45.2449,2.777145
45.3513,2.776684
45.4578,2.776934
45.5642,2.776809
45.6707,2.776508
45.7772,2.77654
45.8836,2.776098
45.9901,2.776638
46.0965,2.776279
46.203,2.776286
46.3094,2.776079
46.4159,2.776101
46.5224,2.775297
46.6288,2.775317
46.7353,2.775346
46.8417,2.775052
46.9482,2.7749
47.0547,2.774616
47.1611,2.774985
47.2676,2.775017
47.374,2.774442
47.4805,2.774041
47.5869,2.774275
47.6934,2.773776
47.7999,2.773342
47.9063,2.773287
48.0128,2.773033
48.1192,2.772927
48.2257,2.77266
48.3322,2.772632
48.4386,2.772357
48.5451,2.772182
48.6515,2.771766
48.758,2.771724
48.8644,2.771321
48.9709,2.771543
49.0774,2.771201
49.1838,2.770701
49.2903,2.770186
49.3967,2.770788
49.5032,2.770545
49.6097,2.770333
49.7161,2.770149
49.8226,2.770223
49.929,2.769869
50.0355,2.769837
50.142,2.76954
50.2484,2.769056
50.3549,2.76854
50.4613,2.768599
50.5678,2.768649
50.6742,2.768239
50.7807,2.768118
50.8872,2.768204
50.9936,2.768348
51.1001,2.768122
51.2065,2.768003
51.313,2.767553
51.4195,2.767471
51.5259,2.767474
51.6324,2.767373
51.7388,2.766816
51.8453,2.767169
51.9517,2.766666
52.0582,2.766255
52.1647,2.766431
52.2711,2.766452
52.3776,2.765965
52.484,2.765955
52.5905,2.765664
52.697,2.765439
52.8034,2.765665
52.9099,2.765413
53.0163,2.765598
53.1228,2.765184
53.2292,2.765723
53.3357,2.765212
53.4422,2.764642
53.5486,2.764731
53.6551,2.764752
53.7615,2.764131
53.868,2.764405
53.9745,2.764351
54.0809,2.763903
54.1874,2.763973
54.2938,2.764368
54.4003,2.763904
54.5067,2.763324
54.6132,2.763664
54.7197,2.763426
54.8261,2.763786
54.9326,2.764032
55.039,2.763436
55.1455,2.763226
55.252,2.763061
55.3584,2.762944
55.4649,2.763194
55.5713,2.763187
55.6778,2.763052
55.7843,2.762836
55.8907,2.762704
55.9972,2.762247
56.1036,2.762317
56.2101,2.762328
56.3165,2.762296
56.423,2.762061
56.5295,2.762071
56.6359,2.761218
56.7424,2.761312
56.8488,2.76172
56.9553,2.761516
57.0618,2.761447
57.1682,2.761011
57.2747,2.760831
57.3811,2.760985
57.4876,2.761394
57.594,2.761085
57.7005,2.761503
57.807,2.761193
57.9134,2.761101
58.0199,2.760573
58.1263,2.76117
58.2328,2.760651
58.3393,2.76006
58.4457,2.760042
58.5522,2.75988
58.6586,2.759969
58.7651,2.760059
58.8715,2.759493
58.978,2.759263
59.0845,2.759431
59.1909,2.759146
59.2974,2.758815
59.4038,2.759129
59.5103,2.759124
59.6168,2.759319
59.7232,2.75889
59.8297,2.758835
59.9361,2.758494
60.0426,2.758148
60.1491,2.758628
60.2555,2.758898
60.362,2.758156
60.4684,2.758137
60.5749,2.758371
60.6813,2.758187
60.7878,2.758561
60.8943,2.758106
61.0007,2.758213
61.1072,2.757889
61.2136,2.757935
61.3201,2.758181
61.4266,2.757433
61.533,2.757342
61.6395,2.757428
61.7459,2.757498
61.8524,2.757808
61.9588,2.757743
62.0653,2.757278
62.1718,2.757228
62.2782,2.757122
62.3847,2.757314
62.4911,2.757004
62.5976,2.756924
62.7041,2.756703
62.8105,2.75646
62.917,2.756602
63.0234,2.755948
63.1299,2.756084
63.2363,2.75587
63.3428,2.755835
63.4493,2.75576
63.5557,2.755771
63.6622,2.755843
63.7686,2.755636
63.8751,2.755466
63.9816,2.754833
64.088,2.754891
64.1945,2.754352
64.3009,2.754454
64.4074,2.753971
64.5138,2.75404
64.6203,2.753697
64.7268,2.753413
64.8332,2.753832
64.9397,2.753624
65.0461,2.753238
65.1526,2.75345
65.2591,2.752886
65.3655,2.753182
65.472,2.752644
65.5784,2.752678
65.6849,2.75262
65.7914,2.752179
65.8978,2.751539
66.0043,2.751786
66.1107,2.7509
66.2172,2.751055
66.3236,2.750988
66.4301,2.750642
66.5366,2.750795
66.643,2.750473
66.7495,2.750452
66.8559,2.750051
66.9624,2.750082
67.0689,2.749719
67.1753,2.74984
67.2818,2.749687
67.3882,2.749546
67.4947,2.749438
67.6011,2.749302
67.7076,2.7486
67.8141,2.748814
67.9205,2.748887
68.027,2.748609
68.1334,2.748782
68.2399,2.748301
68.3464,2.748114
68.4528,2.747874
68.5593,2.747789
68.6657,2.747917
68.7722,2.747558
68.8786,2.747521
68.9851,2.747375
69.0916,2.746845
69.198,2.746842
69.3045,2.746518
69.4109,2.746526
69.5174,2.746684
69.6239,2.746253
69.7303,2.745605
69.8368,2.745692
69.9432,2.745759
70.0497,2.745303
70.1561,2.74551
70.2626,2.745012
70.3691,2.745155
70.4755,2.745568
70.582,2.744798
70.6884,2.744063
70.7949,2.744174
70.9014,2.743719
71.0078,2.743881
71.1143,2.743463
71.2207,2.743166
71.3272,2.742791
71.4337,2.742628
71.5401,2.742486
71.6466,2.742325
71.753,2.742315
71.8595,2.74218
71.9659,2.741944
72.0724,2.741811
72.1789,2.741846
72.2853,2.74122
72.3918,2.740994
72.4982,2.741109
72.6047,2.741094
72.7112,2.740652
72.8176,2.740603
72.9241,2.740331
73.0305,2.740151
73.137,2.739967
73.2434,2.739784
73.3499,2.739696
73.4564,2.739991
73.5628,2.739671
73.6693,2.739478
73.7757,2.73955
73.8822,2.738714
73.9887,2.739223
74.0951,2.738942
74.2016,2.738751
74.308,2.738202
74.4145,2.737832
74.5209,2.737426
74.6274,2.737284
74.7339,2.73776
74.8403,2.737158
74.9468,2.73643
75.0532,2.737091
75.1597,2.73639
75.2662,2.736105
75.3726,2.735976
75.4791,2.736146
75.5855,2.735873
75.692,2.735734
75.7984,2.735688
75.9049,2.736095
76.0114,2.735763
76.1178,2.735138
76.2243,2.734659
76.3307,2.734895
76.4372,2.734878
76.5437,2.734947
76.6501,2.734946
76.7566,2.734459
76.863,2.734897
76.9695,2.734349
77.076,2.7342
77.1824,2.73374
77.2889,2.734157
77.3953,2.733868
77.5018,2.733668
77.6082,2.733942
77.7147,2.73362
77.8212,2.733273
77.9276,2.733475
78.0341,2.733453
78.1405,2.733156
78.247,2.732761
78.3535,2.732769
78.4599,2.733216
78.5664,2.732705
78.6728,2.732257
78.7793,2.732623
78.8857,2.731924
78.9922,2.732445
79.0987,2.732607
79.2051,2.732388
79.3116,2.731989
79.418,2.73176
79.5245,2.731663
79.631,2.731724
79.7374,2.731681
79.8439,2.731076
79.9503,2.731016
80.0568,2.731102
80.1632,2.730574
80.2697,2.730699
80.3762,2.730352
80.4826,2.729739
80.5891,2.730253
80.6955,2.729966
80.802,2.729686
80.9085,2.72977
81.0149,2.729344
81.1214,2.729399
81.2278,2.729005
81.3343,2.729001
81.4407,2.728732
81.5472,2.728675
81.6537,2.729111
81.7601,2.728907
81.8666,2.72869
81.973,2.728953
82.0795,2.728646
82.186,2.728388
82.2924,2.728104
82.3989,2.727918
82.5053,2.727659
82.6118,2.727496
82.7183,2.7282
82.8247,2.727133
82.9312,2.727038
83.0376,2.726867
83.1441,2.726338
83.2505,2.726692
83.357,2.726409
83.4635,2.726363
83.5699,2.725987
83.6764,2.726224
83.7828,2.726084
83.8893,2.725821
83.9958,2.725193
84.1022,2.72509
84.2087,2.724983
84.3151,2.725214
84.4216,2.724715
84.528,2.724594
84.6345,2.724293
84.741,2.724617
84.8474,2.724305
84.9539,2.724056
85.0603,2.724255
85.1668,2.724207
85.2733,2.72417
85.3797,2.723864
85.4862,2.723403
85.5926,2.723556
85.6991,2.722728
85.8055,2.722543
85.912,2.722152
86.0185,2.722119
86.1249,2.722442
86.2314,2.722147
86.3378,2.721918
86.4443,2.721845
86.5508,2.722064
86.6572,2.721606
86.7637,2.721972
86.8701,2.721219
86.9766,2.721817
87.083,2.72175
87.1895,2.721308
87.296,2.721431
87.4024,2.721273
87.5089,2.721475
87.6153,2.720654
87.7218,2.721065
87.8283,2.72104
87.9347,2.720614
88.0412,2.72041
88.1476,2.720654
88.2541,2.720419
88.3606,2.720197
88.467,2.71977
88.5735,2.719628
88.6799,2.719566
88.7864,2.71961
88.8928,2.719814
88.9993,2.719367
89.1058,2.719217
89.2122,2.718759
89.3187,2.719437
89.4251,2.718826
89.5316,2.718781
89.6381,2.719275
89.7445,2.719185
89.851,2.719206
89.9574,2.718983
90.0639,2.718671
90.1703,2.718379
90.2768,2.718327
90.3833,2.718524
90.4897,2.718479
90.5962,2.717902
90.7026,2.717573
90.8091,2.717445
90.9156,2.717287
91.022,2.716883
91.1285,2.716712
91.2349,2.716824
91.3414,2.716383
91.4478,2.716395
91.5543,2.715542
91.6608,2.715411
91.7672,2.715436
91.8737,2.715187
91.9801,2.714746
92.0866,2.714242
92.1931,2.713438
92.2995,2.713444
92.406,2.712798
92.5124,2.712843
92.6189,2.712314
92.7253,2.712289
92.8318,2.713165
92.9383,2.71249
93.0447,2.712791
93.1512,2.712688
93.2576,2.712345
93.3641,2.712579
93.4706,2.712014
93.577,2.711659
93.6835,2.71175
93.7899,2.711819
93.8964,2.710853
94.0029,2.710837
94.1093,2.710134
94.2158,2.711526
94.3222,2.711597
94.4287,2.711177
94.5351,2.710825
94.6416,2.710148
94.7481,2.71087
94.8545,2.710549
94.961,2.709497
95.0674,2.709683
95.1739,2.708769
95.2804,2.708682
95.3868,2.70998
95.4933,2.710076
95.5997,2.709653
95.7062,2.709593
95.8126,2.708762
95.9191,2.708849
96.0256,2.709031
96.132,2.708572
96.2385,2.708973
96.3449,2.708687
96.4514,2.708533
96.5579,2.708723
96.6643,2.708304
96.7708,2.707716
96.8772,2.707916
96.9837,2.707428
97.0901,2.707106
97.1966,2.706447
97.3031,2.706388
97.4095,2.705949
97.516,2.705568
97.6224,2.705673
97.7289,2.705116
97.8354,2.704603
97.9418,2.704336
98.0483,2.703977
98.1547,2.704225
98.2612,2.703925
98.3677,2.701879
98.4741,2.704598
98.5806,2.703932
98.687,2.704229
98.7935,2.703495
98.8999,2.703464
99.0064,2.703396
99.1129,2.702918
99.2193,2.703025
99.3258,2.702193
99.4322,2.701882
99.5387,2.702496
99.6452,2.702115
99.7516,2.702297
99.8581,2.702235
99.9645,2.702103
100.071,2.702157
100.177,2.701588
100.284,2.701317
100.39,2.701285
100.497,2.70117
100.603,2.700858
100.71,2.701173
100.816,2.701006
100.923,2.700507
101.029,2.699999
101.136,2.699518
101.242,2.698919
101.348,2.698279
101.455,2.698272
101.561,2.698768
101.668,2.69858
101.774,2.698859
101.881,2.698181
101.987,2.698123
102.094,2.697946
102.2,2.698103
102.307,2.6978
102.413,2.697768
102.52,2.69683
102.626,2.696563
102.732,2.695981
102.839,2.695467
102.945,2.694551
103.052,2.693974
103.158,2.694789
103.265,2.694214
103.371,2.693958
103.478,2.69452
103.584,2.694216
103.691,2.691652
103.797,2.691904
103.903,2.691435
104.01,2.691227
104.116,2.69099
104.223,2.691868
104.329,2.692206
104.436,2.691677
104.542,2.691846
104.649,2.691576
104.755,2.691587
104.862,2.691598
104.968,2.691559
105.075,2.69133
105.181,2.690946
105.287,2.690759
105.394,2.691108
105.5,2.691256
105.607,2.691221
105.713,2.692004
105.82,2.69143
105.926,2.69135
106.033,2.691696
106.139,2.691277
106.246,2.691466
106.352,2.690871
106.458,2.690417
106.565,2.690071
106.671,2.691057
106.778,2.690657
106.884,2.690593
106.991,2.690548
107.097,2.690023
107.204,2.689676
107.31,2.689414
107.417,2.687942
107.523,2.689748
107.63,2.686364
107.736,2.686088
107.842,2.688701
107.949,2.689739
108.055,2.686444
108.162,2.685295
108.268,2.685658
108.375,2.687181
108.481,2.68739
108.588,2.688382
108.694,2.688967
108.801,2.688969
108.907,2.689053
109.013,2.688605
109.12,2.686477
109.226,2.690546
109.333,2.689126
109.439,2.686703
109.546,2.686033
109.652,2.686491
109.759,2.684831
109.865,2.685848
109.972,2.685559
110.078,2.684763
110.185,2.686714
110.291,2.685796
110.397,2.685024
110.504,2.68514
110.61,2.684666
110.717,2.684762
110.823,2.683931
110.93,2.684026
111.036,2.684102
111.143,2.682934
111.249,2.680277
111.356,2.682539
111.462,2.679645
111.569,2.682102
111.675,2.682372
111.781,2.682225
111.888,2.682759
111.994,2.683209
112.101,2.682235
112.207,2.683563
112.314,2.680484
112.42,2.677996
112.527,2.677469
112.633,2.676753
112.74,2.675435
112.846,2.676383
112.952,2.676496
113.059,2.676241
113.165,2.676424
113.272,2.677027
113.378,2.67575
113.485,2.674705
113.591,2.675488
113.698,2.675278
113.804,2.675493
113.911,2.675109
114.017,2.674901
114.124,2.675278
114.23,2.674853
114.336,2.673458
114.443,2.673057
114.549,2.672908
114.656,2.672825
114.762,2.673984
114.869,2.673366
114.975,2.672655
115.082,2.672537
115.188,2.67185
115.295,2.672123
115.401,2.671011
115.507,2.669552
115.614,2.669131
115.72,2.669773
115.827,2.669856
115.933,2.669254
116.04,2.66876
116.146,2.668529
116.253,2.668813
116.359,2.668473
116.466,2.667771
116.572,2.666577
116.679,2.665946
116.785,2.665966
116.891,2.665229
116.998,2.664418
117.104,2.664147
117.211,2.663612
117.317,2.664032
117.424,2.66328
117.53,2.663147
117.637,2.663288
117.743,2.662739
117.85,2.663453
117.956,2.663609
118.062,2.663473
118.169,2.663132
118.275,2.661644
118.382,2.662091
118.488,2.662463
118.595,2.661221
118.701,2.660432
118.808,2.659965
118.914,2.660389
119.021,2.660188
119.127,2.660489
119.234,2.66058
119.34,2.660688
119.446,2.659766
119.553,2.659421
119.659,2.659126
119.766,2.658129
119.872,2.658404
119.979,2.657604
120.085,2.657772
120.192,2.657463
120.298,2.657063
120.405,2.655494
120.511,2.654295
120.617,2.653919
120.724,2.653818
120.83,2.653119
120.937,2.654418
121.043,2.652865
121.15,2.6547
121.256,2.654857
121.363,2.655749
121.469,2.655388
121.576,2.654034
121.682,2.655098
121.789,2.654645
121.895,2.65358
122.001,2.653611
122.108,2.652845
122.214,2.652554
122.321,2.651827
122.427,2.652207
122.534,2.653398
122.64,2.653233
122.747,2.652857
122.853,2.653386
122.96,2.652654
123.066,2.652245
123.172,2.651875
123.279,2.650776
123.385,2.651496
123.492,2.650767
123.598,2.650691
123.705,2.650854
123.811,2.650747
123.918,2.649548
124.024,2.649307
124.131,2.646747
124.237,2.649346
124.344,2.650096
124.45,2.648679
124.556,2.648407
124.663,2.648972
124.769,2.645546
124.876,2.651105
124.982,2.648863
125.089,2.648331
125.195,2.647865
125.302,2.648348
125.408,2.648106
125.515,2.64817
125.621,2.64808
125.727,2.648434
125.834,2.649354
125.94,2.649293
126.047,2.648435
126.153,2.64935
126.26,2.648839
126.366,2.649248
126.473,2.648768
126.579,2.648392
126.686,2.648096
126.792,2.64761
126.899,2.64682
127.005,2.646974
127.111,2.64631
127.218,2.645899
127.324,2.646147
127.431,2.646045
127.537,2.645918
127.644,2.645976
127.75,2.646036
127.857,2.645571
127.963,2.645143
128.07,2.64495
128.176,2.644506
128.282,2.643798
128.389,2.643397
128.495,2.640426
128.602,2.642633
128.708,2.642696
128.815,2.641899
128.921,2.639379
129.028,2.639891
129.134,2.639361
129.241,2.639546
129.347,2.641084
129.454,2.64069
129.56,2.639225
129.666,2.640008
129.773,2.64016
129.879,2.639933
129.986,2.639241
130.092,2.636901
130.199,2.636541
130.305,2.63847
130.412,2.639575
130.518,2.638576
130.625,2.638505
130.731,2.638297
130.837,2.63864
130.944,2.638161
131.05,2.638127
131.157,2.637527
131.263,2.637594
131.37,2.637371
131.476,2.636454
131.583,2.636011
131.689,2.634912
131.796,2.635174
131.902,2.633741
132.009,2.634535
132.115,2.634669
132.221,2.634164
132.328,2.634686
132.434,2.634159
132.541,2.633943
132.647,2.633735
132.754,2.633553
132.86,2.633318
132.967,2.632568
133.073,2.633424
133.18,2.633192
133.286,2.632391
133.392,2.632109
133.499,2.631458
133.605,2.632361
133.712,2.631584
133.818,2.631675
133.925,2.631814
134.031,2.630965
134.138,2.630682
134.244,2.629859
134.351,2.629209
134.457,2.629994
134.564,2.629979
134.67,2.629917
134.776,2.628955
134.883,2.628715
134.989,2.628264
135.096,2.627997
135.202,2.627398
135.309,2.626984
135.415,2.62744
135.522,2.62683
135.628,2.626126
135.735,2.625311
135.841,2.624994
135.947,2.624937
136.054,2.624375
136.16,2.624194
136.267,2.623375
136.373,2.622675
136.48,2.620692
136.586,2.620576
136.693,2.621101
136.799,2.61923
136.906,2.62007
137.012,2.618845
137.119,2.617344
137.225,2.616158
137.331,2.616118
137.438,2.61651
137.544,2.616463
137.651,2.618244
137.757,2.61642
137.864,2.618186
137.97,2.618104
138.077,2.617702
138.183,2.616201
138.29,2.616695
138.396,2.617259
138.503,2.617184
138.609,2.616625
138.715,2.613903
138.822,2.61447
138.928,2.615054
139.035,2.614466
139.141,2.614443
139.248,2.611963
139.354,2.613313
139.461,2.611879
139.567,2.612453
139.674,2.612617
139.78,2.613538
139.886,2.613356
139.993,2.613222
140.099,2.612525
140.206,2.611162
140.312,2.608425
140.419,2.609553
140.525,2.611109
140.632,2.611523
140.738,2.610471
140.845,2.609528
140.951,2.608719
141.058,2.608211
141.164,2.607364
141.27,2.607909
141.377,2.607527
141.483,2.607615
141.59,2.606529
141.696,2.605815
141.803,2.605194
141.909,2.606438
142.016,2.604356
142.122,2.603795
142.229,2.603246
142.335,2.602081
142.441,2.60166
142.548,2.604004
142.654,2.603129
142.761,2.603312
142.867,2.605424
142.974,2.603427
143.08,2.603276
143.187,2.603551
143.293,2.603994
143.4,2.603238
143.506,2.601844
143.613,2.60329
143.719,2.603529
143.825,2.60277
143.932,2.601869
144.038,2.600925
144.145,2.600797
144.251,2.599438
144.358,2.596391
144.464,2.596991
144.571,2.597836
144.677,2.599347
144.784,2.597718
144.89,2.597388
144.996,2.595242
145.103,2.596475
145.209,2.592089
145.316,2.596308
145.422,2.594994
145.529,2.593616
145.635,2.592518
145.742,2.592834
145.848,2.592582
145.955,2.592909
146.061,2.591573
146.168,2.592817
146.274,2.594572
146.38,2.593187
146.487,2.593117
146.593,2.592263
146.7,2.592391
146.806,2.59171
146.913,2.592099
147.019,2.591837
147.126,2.591656
147.232,2.591893
147.339,2.591145
147.445,2.590456
147.551,2.589863
147.658,2.589149
147.764,2.590284
147.871,2.590039
147.977,2.5891
148.084,2.588108
148.19,2.585562
148.297,2.584909
148.403,2.584261
148.51,2.585239
148.616,2.583329
148.723,2.586223
148.829,2.585304
148.935,2.585704
149.042,2.584881
149.148,2.58216
149.255,2.58137
149.361,2.578375
149.468,2.578202
149.574,2.579774
149.681,2.578746
149.787,2.578916
149.894,2.579644
150,2.578042
150.106,2.578856
150.213,2.578357
150.319,2.580269
150.426,2.578439
150.532,2.577909
150.639,2.577203
150.745,2.575733
150.852,2.576224
150.958,2.574871
151.065,2.573354
151.171,2.572946
151.278,2.572257
151.384,2.572684
151.49,2.573436
151.597,2.573287
151.703,2.572937
151.81,2.572142
151.916,2.570348
152.023,2.570563
152.129,2.570694
152.236,2.569202
152.342,2.567456
152.449,2.565886
152.555,2.565756
152.661,2.565278
152.768,2.565359
152.874,2.564058
152.981,2.56274
153.087,2.562583
153.194,2.562492
153.3,2.560836
153.407,2.560159
153.513,2.561586
153.62,2.562715
153.726,2.561773
153.833,2.559787
153.939,2.561193
154.045,2.559497
154.152,2.559666
154.258,2.559498
154.365,2.55832
154.471,2.558347
154.578,2.559946
154.684,2.558537
154.791,2.560745
154.897,2.562799
155.004,2.562826
155.11,2.562428
155.216,2.561654
155.323,2.561394
155.429,2.558847
155.536,2.557553
155.642,2.559119
155.749,2.555069
155.855,2.553786
155.962,2.555043
156.068,2.554701
156.175,2.553404
156.281,2.55269
156.388,2.552981
156.494,2.552638
156.6,2.552776
156.707,2.551999
156.813,2.552799
156.92,2.552146
157.026,2.550625
157.133,2.55037
157.239,2.550056
157.346,2.548801
157.452,2.548727
157.559,2.548797
157.665,2.54675
157.695,2.546571