File: processed_data/40.0mA1msec-0.2mA9msec.csv
Capacity_mAh,Voltage_V
0.0,2.925658
0.133528,3.012486
0.267056,2.965848
0.400584,2.933166
0.534112,2.90797
0.66764,2.887594
0.801168,2.871247
0.934696,2.857548
1.06822,2.845379
1.20175,2.834755
1.33528,2.825973
1.46881,2.817766
1.60234,2.81024
1.73586,2.803559
1.86939,2.798749
2.00292,2.793809
2.13645,2.790395
2.26998,2.787143
2.4035,2.784424
2.53703,2.782395
2.67056,2.780717
2.80409,2.77959
2.93762,2.777573
3.07114,2.776594
3.20467,2.775496
3.3382,2.773609
3.47173,2.772982
3.60526,2.772386
3.73878,2.771722
3.87231,2.770353
4.00584,2.770004
4.13937,2.768562
4.2729,2.76784
4.40642,2.767156
4.53995,2.766315
4.67348,2.765927
4.80701,2.764905
4.94054,2.764105
5.07406,2.763267
5.20759,2.762771
5.34112,2.76211
5.47465,2.761641
5.60818,2.761065
5.7417,2.760829
5.87523,2.760608
6.00876,2.759788
6.14229,2.759366
6.27582,2.758988
6.40934,2.758085
6.54287,2.758208
6.6764,2.757131
6.80993,2.756606
6.94346,2.756527
7.07698,2.756579
7.21051,2.755821
7.34404,2.755694
7.47757,2.755253
7.61109,2.754418
7.74462,2.754742
7.87815,2.754212
8.01168,2.754017
8.14521,2.753181
8.27873,2.752825
8.41226,2.752655
8.54579,2.752759
8.67932,2.751645
8.81285,2.751436
8.94637,2.750789
9.0799,2.750703
9.21343,2.750342
9.34696,2.749929
9.48049,2.750122
9.61401,2.749968
9.74754,2.749393
9.88107,2.749348
10.0146,2.749539
10.1481,2.749151
10.2817,2.748755
10.4152,2.749054
10.5487,2.748339
10.6822,2.748505
10.8158,2.748139
10.9493,2.747588
11.0828,2.74725
11.2164,2.747456
11.3499,2.746996
11.4834,2.746631
11.6169,2.746264
11.7505,2.746077
11.884,2.74622
12.0175,2.745917
12.151,2.746094
12.2846,2.746534
12.4181,2.745742
12.5516,2.745822
12.6852,2.745982
12.8187,2.745667
12.9522,2.745779
13.0857,2.746155
13.2193,2.746561
13.3528,2.745582
13.4863,2.746039
13.6199,2.746213
13.7534,2.745732
13.8869,2.745944
14.0204,2.745617
14.154,2.745497
14.2875,2.745104
14.421,2.744928
14.5545,2.745165
14.6881,2.745439
14.8216,2.744947
14.9551,2.744348
15.0887,2.744592
15.2222,2.744057
15.3557,2.743696
15.4892,2.743834
15.6228,2.743565
15.7563,2.743635
15.8898,2.742953
16.0234,2.742411
16.1569,2.74221
16.2904,2.742137
16.4239,2.741687
16.5575,2.741175
16.691,2.741326
16.8245,2.740709
16.9581,2.74054
17.0916,2.740903
17.2251,2.740271
17.3586,2.740396
17.4922,2.739666
17.6257,2.740247
17.7592,2.740003
17.8927,2.74001
18.0263,2.739687
18.1598,2.738948
18.2933,2.738834
18.4269,2.739084
18.5604,2.738873
18.6939,2.738744
18.8274,2.73866
18.961,2.738796
19.0945,2.738025
19.228,2.73829
19.3616,2.737737
19.4951,2.73772
19.6286,2.737312
19.7621,2.737606
19.8957,2.737045
20.0292,2.737136
20.1627,2.736981
20.2963,2.73719
20.4298,2.736639
20.5633,2.736504
20.6968,2.736741
20.8304,2.737472
20.9639,2.73719
21.0974,2.736747
21.2309,2.736529
21.3645,2.736754
21.498,2.735735
21.6315,2.735807
21.7651,2.735706
21.8986,2.736006
22.0321,2.736102
22.1656,2.736049
22.2992,2.735798
22.4327,2.73531
22.5662,2.735136
22.6998,2.735791
22.8333,2.734945
22.9668,2.735019
23.1003,2.734807
23.2339,2.734287
23.3674,2.734125
23.5009,2.733417
23.6345,2.733828
23.768,2.73311
23.9015,2.73276
24.035,2.732893
24.1686,2.732746
24.3021,2.73235
24.4356,2.732107
24.5691,2.732249
24.7027,2.732027
24.8362,2.73123
24.9697,2.731074
25.1033,2.730556
25.2368,2.730182
25.3703,2.730033
25.5038,2.730234
25.6374,2.729472
25.7709,2.729559
25.9044,2.729139
26.038,2.729241
26.1715,2.728979
26.305,2.728454
26.4385,2.728186
26.5721,2.728024
26.7056,2.727797
26.8391,2.727527
26.9727,2.727734
27.1062,2.727184
27.2397,2.726902
27.3732,2.726622
27.5068,2.726711
27.6403,2.726711
27.7738,2.726155
27.9073,2.725847
28.0409,2.726014
28.1744,2.725995
28.3079,2.725711
28.4415,2.725522
28.575,2.725177
28.7085,2.725149
28.842,2.725093
28.9756,2.724557
29.1091,2.724427
29.2426,2.724383
29.3762,2.724266
29.5097,2.724395
29.6432,2.7239
29.7767,2.723916
29.9103,2.72386
30.0438,2.72354
30.1773,2.723191
30.3109,2.723722
30.4444,2.72329
30.5779,2.723089
30.7114,2.722807
30.845,2.722506
30.9785,2.72234
31.112,2.721832
31.2455,2.721853
31.3791,2.721488
31.5126,2.721025
31.6461,2.720798
31.7797,2.720607
31.9132,2.720092
32.0467,2.720008
32.1802,2.719466
32.3138,2.719393
32.4473,2.719161
32.5808,2.718954
32.7144,2.718477
32.8479,2.718297
32.9814,2.717901
33.1149,2.717774
33.2485,2.717121
33.382,2.71686
33.5155,2.716895
33.6491,2.717194
33.7826,2.717016
33.9161,2.716765
34.0496,2.71665
34.1832,2.716044
34.3167,2.71602
34.4502,2.716531
34.5837,2.716138
34.7173,2.715708
34.8508,2.715574
34.9843,2.715727
35.1179,2.715164
35.2514,2.714858
35.3849,2.714775
35.5184,2.714955
35.652,2.715089
35.7855,2.714334
35.919,2.713675
36.0526,2.714082
36.1861,2.712837
36.3196,2.713117
36.4531,2.712526
36.5867,2.712393
36.7202,2.712178
36.8537,2.711694
36.9873,2.711929
37.1208,2.711186
37.2543,2.71091
37.3878,2.710754
37.5214,2.7105
37.6549,2.710467
37.7884,2.710765
37.9219,2.710584
38.0555,2.71013
38.189,2.71017
38.3225,2.709666
38.4561,2.709424
38.5896,2.709494
38.7231,2.709066
38.8566,2.708692
38.9902,2.708909
39.1237,2.708501
39.2572,2.707932
39.3908,2.707972
39.5243,2.708029
39.6578,2.707852
39.7913,2.708043
39.9249,2.707585
40.0584,2.707212
40.1919,2.70672
40.3255,2.706773
40.459,2.706522
40.5925,2.706215
40.726,2.706436
40.8596,2.706434
40.9931,2.705844
41.1266,2.705219
41.2601,2.705126
41.3937,2.704945
41.5272,2.70487
41.6607,2.704401
41.7943,2.70386
41.9278,2.703931
42.0613,2.703392
42.1948,2.703469
42.3284,2.702739
42.4619,2.703312
42.5954,2.702956
42.729,2.702988
42.8625,2.702801
42.996,2.702094
43.1295,2.70186
43.2631,2.701643
43.3966,2.700701
43.5301,2.700274
43.6636,2.700343
43.7972,2.700106
43.9307,2.699678
44.0642,2.699715
44.1978,2.69955
44.3313,2.700166
44.4648,2.699639
44.5983,2.699626
44.7319,2.699218
44.8654,2.69916
44.9989,2.699059
45.1325,2.698679
45.266,2.698483
45.3995,2.698162
45.533,2.698
45.6666,2.697762
45.8001,2.696881
45.9336,2.69708
46.0672,2.696343
46.2007,2.696682
46.3342,2.696231
46.4677,2.696469
46.6013,2.696002
46.7348,2.695748
46.8683,2.695822
47.0018,2.695317
47.1354,2.695008
47.2689,2.694752
47.4024,2.694923
47.536,2.694169
47.6695,2.694386
47.803,2.694009
47.9365,2.693977
48.0701,2.693968
48.2036,2.693483
48.3371,2.693087
48.4707,2.693065
48.6042,2.692827
48.7377,2.691907
48.8712,2.691866
49.0048,2.692095
49.1383,2.691228
49.2718,2.691164
49.4054,2.690892
49.5389,2.690485
49.6724,2.690153
49.8059,2.689879
49.9395,2.689531
50.073,2.689418
50.2065,2.689053
50.34,2.688506
50.4736,2.688367
50.6071,2.688439
50.7406,2.688167
50.8742,2.688024
51.0077,2.687682
51.1412,2.687559
51.2747,2.687102
51.4083,2.686862
51.5418,2.686718
51.6753,2.6866
51.8089,2.685861
51.9424,2.685656
52.0759,2.685475
52.2094,2.685101
52.343,2.685204
52.4765,2.684518
52.61,2.684159
52.7436,2.684122
52.8771,2.684048
53.0106,2.683429
53.1441,2.683262
53.2777,2.683316
53.4112,2.682795
53.5447,2.682481
53.6782,2.682116
53.8118,2.682348
53.9453,2.681277
54.0788,2.68116
54.2124,2.680445
54.3459,2.680798
54.4794,2.680067
54.6129,2.680581
54.7465,2.680082
54.88,2.679867
55.0135,2.679348
55.1471,2.679435
55.2806,2.679186
55.4141,2.678758
55.5476,2.678398
55.6812,2.678063
55.8147,2.67762
55.9482,2.67709
56.0818,2.676629
56.2153,2.676682
56.3488,2.675737
56.4823,2.675787
56.6159,2.675292
56.7494,2.675093
56.8829,2.674854
57.0164,2.67488
57.15,2.674114
57.2835,2.673907
57.417,2.673691
57.5506,2.673167
57.6841,2.673422
57.8176,2.672811
57.9511,2.672503
58.0847,2.672151
58.2182,2.671666
58.3517,2.671378
58.4853,2.671259
58.6188,2.671388
58.7523,2.671036
58.8858,2.670304
59.0194,2.669341
59.1529,2.669702
59.2864,2.670001
59.42,2.669859
59.5535,2.668461
59.687,2.668091
59.8205,2.668104
59.9541,2.667836
60.0876,2.667546
60.2211,2.667365
60.3546,2.667748
60.4882,2.666161
60.6217,2.665949
60.7552,2.66533
60.8888,2.664767
61.0223,2.664403
61.1558,2.664116
61.2893,2.663822
61.4229,2.663543
61.5564,2.663635
61.6899,2.663275
61.8235,2.66249
61.957,2.662432
62.0905,2.662553
62.224,2.662379
62.3576,2.661649
62.4911,2.6613
62.6246,2.661377
62.7582,2.660936
62.8917,2.660856
63.0252,2.659766
63.1587,2.659482
63.2923,2.659295
63.4258,2.658908
63.5593,2.658964
63.6928,2.658843
63.8264,2.658031
63.9599,2.657659
64.0934,2.65753
64.227,2.656919
64.3605,2.656963
64.494,2.656816
64.6275,2.655749
64.7611,2.655188
64.8946,2.655221
65.0281,2.655252
65.1617,2.654376
65.2952,2.654272
65.4287,2.653846
65.5622,2.65338
65.6958,2.653403
65.8293,2.653012
65.9628,2.652471
66.0964,2.652018
66.2299,2.651663
66.3634,2.651319
66.4969,2.651492
66.6305,2.650783
66.764,2.650554
66.8975,2.649614
67.031,2.649666
67.1646,2.649058
67.2981,2.649299
67.4316,2.649071
67.5652,2.648844
67.6987,2.648077
67.8322,2.647887
67.9657,2.647567
68.0993,2.647106
68.2328,2.646774
68.3663,2.646618
68.4999,2.646008
68.6334,2.64539
68.7669,2.645014
68.9004,2.644769
69.034,2.644531
69.1675,2.644586
69.301,2.644315
69.4346,2.643689
69.5681,2.64264
69.7016,2.64228
69.8351,2.641948
69.9687,2.64154
70.1022,2.641539
70.2357,2.641054
70.3692,2.640585
70.5028,2.639787
70.6363,2.639624
70.7698,2.639259
70.9034,2.63857
71.0369,2.638459
71.1704,2.638158
71.3039,2.637413
71.4375,2.63733
71.571,2.636681
71.7045,2.635981
71.8381,2.635388
71.9716,2.635341
72.1051,2.634618
72.2386,2.633913
72.3722,2.633995
72.5057,2.633322
72.6392,2.632953
72.7727,2.632565
72.9063,2.632065
73.0398,2.632229
73.1733,2.631736
73.3069,2.630983
73.4404,2.630909
73.5739,2.630193
73.7074,2.629908
73.841,2.629215
73.9745,2.628724
74.108,2.628325
74.2416,2.627953
74.3751,2.627739
74.5086,2.627449
74.6421,2.627248
74.7757,2.626917
74.9092,2.626305
75.0427,2.625719
75.1763,2.625197
75.3098,2.624978
75.4433,2.624129
75.5768,2.624227
75.7104,2.623806
75.8439,2.623175
75.9774,2.622613
76.1109,2.621682
76.2445,2.621458
76.378,2.621173
76.5115,2.620107
76.6451,2.620142
76.7786,2.619586
76.9121,2.61933
77.0456,2.618524
77.1792,2.617737
77.3127,2.617625
77.4462,2.617249
77.5798,2.617026
77.7133,2.616266
77.8468,2.615556
77.9803,2.614933
78.1139,2.614376
78.2474,2.614159
78.3809,2.613223
78.5145,2.612775
78.648,2.611811
78.7815,2.61159
78.915,2.611151
79.0486,2.610975
79.1821,2.61026
79.3156,2.609276
79.4491,2.608896
79.5827,2.608685
79.7162,2.60764
79.8497,2.606952
79.9833,2.60652
80.1168,2.606147
80.2503,2.605734
80.3838,2.605045
80.5174,2.604922
80.6509,2.604223
80.7844,2.603693
80.918,2.603112
81.0515,2.602811
81.185,2.602299
81.3185,2.601753
81.4521,2.601348
81.5856,2.601076
81.7191,2.60025
81.8527,2.599545
81.9862,2.598951
82.1197,2.598241
82.2532,2.598207
82.3868,2.597362
82.5203,2.59663
82.6538,2.596182
82.7873,2.595989
82.9209,2.595501
83.0544,2.594865
83.1879,2.594303
83.3215,2.593987
83.455,2.592704
83.5885,2.592222
83.722,2.592083
83.8556,2.591213
83.9891,2.591427
84.1226,2.590426
84.2562,2.589663
84.3897,2.588998
84.5232,2.588814
84.6567,2.588324
84.7903,2.587735
84.9238,2.587356
85.0573,2.587152
85.1909,2.586415
85.3244,2.585659
85.4579,2.585008
85.5914,2.584041
85.725,2.583847
85.8585,2.582765
85.992,2.582925
86.1255,2.58197
86.2591,2.581583
86.3926,2.580957
86.5261,2.580238
86.6597,2.579586
86.7932,2.579117
86.9267,2.578322
87.0602,2.578057
87.1938,2.578056
87.3273,2.57723
87.4608,2.576407
87.5944,2.575959
87.7279,2.575068
87.8614,2.575378
87.9949,2.574245
88.1285,2.573839
88.262,2.573024
88.3955,2.572775
88.5291,2.572509
88.6626,2.571517
88.7961,2.571315
88.9296,2.56991
89.0632,2.569542
89.1967,2.568712
89.3302,2.568619
89.4637,2.567792
89.5973,2.56741
89.7308,2.566728
89.8643,2.566148
89.9979,2.565602
90.1314,2.565264
90.2649,2.564368
90.3984,2.563668
90.532,2.562992
90.6655,2.561924
90.799,2.561444
90.9326,2.560742
91.0661,2.56033
91.1996,2.559498
91.3331,2.558694
91.4667,2.557778
91.6002,2.557369
91.7337,2.557108
91.8673,2.556943
92.0008,2.555625
92.1343,2.555112
92.2678,2.554131
92.4014,2.553449
92.5349,2.552769
92.6684,2.552082
92.8019,2.551385
92.9355,2.550392
93.069,2.54957
93.2025,2.549016
93.3361,2.548177
93.4696,2.547048
93.6031,2.546586
93.7366,2.545633
93.8702,2.545321
94.0037,2.544229
94.1372,2.543597
94.2708,2.543465
94.4043,2.542735
94.5378,2.542125
94.6713,2.541018
94.8049,2.540906
94.9384,2.539597
95.0719,2.539178
95.2055,2.538026
95.339,2.536855
95.4725,2.536447
95.606,2.535982
95.7396,2.53535
95.8731,2.534644
96.0066,2.534618
96.1401,2.533601
96.2737,2.532489
96.4072,2.531831
96.5407,2.531145
96.6743,2.530346
96.8078,2.530201
96.9413,2.528943
97.0748,2.52862
97.2084,2.527179
97.3419,2.526188
97.4754,2.525489
97.609,2.524716
97.7425,2.523863
97.876,2.523458
98.0095,2.522543
98.1431,2.521798
98.2766,2.520567
98.4101,2.520252
98.5437,2.519887
98.6772,2.518995
98.8107,2.517833
98.9442,2.516895
99.0778,2.516373
99.2113,2.516026
99.3448,2.514819
99.4783,2.5142
99.6119,2.51317
99.7454,2.512035
99.8789,2.511202
100.012,2.510082
100.146,2.509535
100.28,2.508392
100.413,2.507531
100.547,2.506412
100.68,2.505948
100.814,2.50529
100.947,2.504336
101.081,2.503643
101.214,2.502888
101.348,2.50214
101.481,2.501208
101.615,2.500391
101.748,2.498897
101.882,2.498335
102.015,2.498002
102.149,2.497006
102.282,2.496297
102.416,2.495058
102.549,2.494687
102.683,2.493395
102.817,2.492845
102.95,2.491805
103.084,2.490693
103.217,2.490026
103.351,2.489249
103.484,2.488301
103.618,2.487128
103.751,2.485802
103.885,2.485487
104.018,2.484094
104.152,2.483703
104.285,2.482362
104.419,2.481818
104.552,2.48052
104.686,2.480187
104.819,2.478864
104.953,2.477729
105.087,2.477367
105.22,2.476912
105.354,2.475326
105.487,2.474727
105.621,2.473396
105.754,2.472208
105.888,2.471668
106.021,2.470699
106.155,2.469808
106.288,2.469005
106.422,2.468065
106.555,2.46704
106.689,2.466596
106.822,2.465055
106.956,2.464413
107.089,2.462861
107.223,2.462298
107.356,2.46126
107.49,2.460096
107.624,2.459796
107.757,2.458882
107.891,2.45733
108.024,2.456167
108.158,2.454704
108.291,2.454148
108.425,2.453216
108.558,2.451767
108.692,2.451346
108.825,2.449739
108.959,2.448714
109.092,2.447851
109.226,2.447262
109.359,2.44558
109.493,2.444786
109.626,2.443951
109.76,2.442682
109.894,2.441828
110.027,2.440559
110.161,2.439481
110.294,2.438045
110.428,2.437451
110.561,2.436792
110.695,2.43577
110.828,2.434191
110.962,2.432702
111.095,2.431667
111.229,2.430483
111.362,2.430077
111.496,2.428968
111.629,2.427401
111.763,2.426576
111.896,2.424782
112.03,2.424444
112.164,2.422648
112.297,2.421841
112.431,2.420069
112.564,2.419173
112.698,2.417578
112.831,2.416302
112.965,2.414918
113.098,2.413918
113.232,2.412703
113.365,2.411446
113.499,2.410451
113.632,2.409035
113.766,2.407993
113.899,2.406293
114.033,2.404877
114.166,2.403678
114.3,2.402566
114.433,2.401364
114.567,2.400116
114.701,2.398488
114.834,2.397275
114.968,2.396278
115.101,2.394924
115.235,2.393448
115.368,2.392349
115.502,2.39079
115.635,2.389519
115.769,2.387588
115.902,2.3866
116.036,2.385359
116.169,2.384
116.303,2.382881
116.436,2.381603
116.57,2.379964
116.703,2.378329
116.837,2.376935
116.971,2.374997
117.104,2.373885
117.238,2.372646
117.371,2.371241
117.505,2.368954
117.638,2.367987
117.772,2.36582
117.905,2.364269
118.039,2.362614
118.172,2.361233
118.306,2.359262
118.439,2.358058
118.573,2.3562
118.706,2.354561
118.84,2.353004
118.973,2.351516
119.107,2.348991
119.24,2.34759
119.374,2.345434
119.508,2.344088
119.641,2.343094
119.775,2.340962
119.908,2.339122
120.042,2.337425
120.175,2.335471
120.309,2.33421
120.442,2.332674
120.576,2.330772
120.709,2.328998
120.843,2.32709
120.976,2.325548
121.11,2.323459
121.243,2.321563
121.377,2.320096
121.51,2.318048
121.644,2.316056
121.778,2.314575
121.911,2.312603
122.045,2.309787
122.178,2.307541
122.312,2.305598
122.445,2.304095
122.579,2.301673
122.712,2.299838
122.846,2.297451
122.979,2.295844
123.113,2.293484
123.246,2.29117
123.38,2.288603
123.513,2.286299
123.647,2.283843
123.78,2.28223
123.914,2.280138
124.047,2.277967
124.181,2.275655
124.315,2.273611
124.448,2.270499
124.582,2.268312
124.715,2.266029
124.849,2.263302
124.982,2.261104
125.116,2.258879
125.249,2.256353
125.383,2.253656
125.516,2.250862
125.65,2.248278
125.783,2.245932
125.917,2.243515
126.05,2.240415
126.184,2.238168
126.317,2.234762
126.451,2.231907
126.585,2.228177
126.718,2.225123
126.852,2.222254
126.985,2.219518
127.119,2.216837
127.252,2.213248
127.386,2.210076
127.519,2.206939
127.653,2.204185
127.786,2.200366
127.92,2.197091
128.053,2.194001
128.187,2.190364
128.32,2.186438
128.454,2.183169
128.587,2.17958
128.721,2.175516
128.855,2.171777
128.988,2.168154
129.122,2.164623
129.255,2.161036
129.389,2.158095
129.522,2.155801
129.656,2.154192
129.789,2.1536
129.923,2.153088
130.056,2.153025
130.19,2.15284
130.323,2.152682
130.457,2.152504
130.59,2.152966
130.724,2.152215
130.857,2.15207
130.991,2.151856
131.124,2.151831
131.258,2.15205
131.392,2.15175
131.525,2.151557
131.659,2.151106
131.792,2.151407
131.926,2.151271
132.059,2.151278
132.193,2.150997
132.326,2.150946
132.46,2.150959
132.593,2.15096
132.727,2.15083
132.86,2.150512
132.994,2.150277
133.127,2.150356
133.261,2.150269
133.394,2.150151
133.528,2.149887
133.662,2.149553
133.795,2.1497
133.929,2.149277
134.062,2.149326
134.196,2.148942
134.329,2.14895
134.463,2.148865
134.596,2.148621
134.73,2.148487
134.863,2.148334
134.997,2.148418
135.13,2.147929
135.264,2.147622
135.397,2.147521
135.531,2.147002
135.664,2.146608
135.798,2.147007
135.931,2.146443
136.065,2.145814
136.199,2.145596
136.332,2.145693
136.466,2.144754
136.599,2.144369
136.733,2.071978
136.866,2.046553
137,2.028492
137.133,2.01366
137.267,1.999843
137.4,1.985664
137.534,1.972596
137.667,1.95827
137.801,1.945269
137.934,1.931861
138.068,1.919238
138.201,1.906125
138.335,1.892959
138.469,1.879831
138.602,1.866084
138.736,1.852747
138.869,1.839463
139.003,1.825256
139.136,1.812092
139.27,1.797688
139.403,1.783379
139.537,1.769162
139.67,1.755157
139.804,1.74185
139.937,1.727487
140.071,1.713272
140.204,1.699091
140.338,1.685236
140.471,1.671345
140.605,1.656884
140.738,1.642555
140.872,1.629244
141.006,1.615148
141.139,1.600858
141.273,1.58714
141.406,1.573297
141.54,1.559228
141.673,1.545185
141.807,1.532109
141.94,1.518103
142.074,1.504879
142.207,1.492328
142.341,1.479278
142.474,1.465651
142.608,1.453255
142.741,1.440515
142.875,1.428001
143.008,1.415387
143.142,1.402863
143.276,1.391096
143.409,1.378635
143.543,1.366981
143.676,1.354628
143.81,1.343605
143.943,1.331701
144.077,1.320211
144.21,1.308443
144.344,1.297194
144.477,1.285681
144.611,1.274071
144.744,1.261583
144.878,1.249101
145.011,1.231855
145.145,1.189744
145.278,1.171572
145.412,1.155664
145.545,1.140934
145.679,1.125668
145.813,1.112053
145.946,1.098859
146.08,1.086657
146.213,1.074674
146.347,1.062862
146.48,1.054335
146.614,1.047339
146.747,1.04134
146.881,1.036169
147.014,1.0317
147.148,1.026993
147.281,1.022942
147.415,1.01897
147.548,1.01521
147.682,1.012321
147.815,1.009497
147.949,1.006009
148.083,1.00334
148.216,1.00079
148.35,0.998496
148.483,0.996166
148.617,0.993983
148.75,0.991981
148.884,0.990553
149.017,0.988965
149.151,0.987972
149.284,0.985003
149.418,0.983448
149.551,0.981587
149.685,0.980315
149.818,0.978362
149.952,0.977417
150.085,0.975714
150.219,0.974627
150.353,0.973542
150.486,0.972485
150.62,0.970975
150.753,0.969634
150.887,0.968185
151.02,0.967988
151.154,0.967643
151.287,0.966393
151.421,0.965343
151.554,0.96464
151.688,0.963174
151.821,0.962588
151.955,0.961422
152.088,0.960489
152.222,0.959703
152.355,0.958877
152.489,0.958908
152.622,0.958031
152.756,0.957323
152.89,0.956639
153.023,0.956679
153.157,0.955686
153.29,0.95495
153.424,0.954784
153.557,0.954225
153.691,0.952983
153.824,0.952842
153.958,0.951975
154.091,0.951397
154.225,0.950596
154.358,0.950234
154.492,0.949689
154.625,0.948961
154.759,0.948736
154.892,0.94795
155.026,0.948069
155.16,0.947894
155.293,0.947305
155.427,0.946866
155.56,0.946407
155.694,0.946396
155.827,0.946597
155.961,0.945503
156.094,0.945202
156.228,0.945265
156.361,0.945201
156.495,0.944489
156.628,0.944033
156.762,0.943852
156.895,0.943622
157.029,0.943217
157.162,0.943384
157.296,0.943024
157.429,0.942723
157.563,0.942486
157.697,0.942554
157.83,0.942229
157.964,0.941809
158.097,0.941594
158.231,0.94145
158.364,0.940852
158.498,0.941106
158.631,0.940933
158.765,0.940171
158.898,0.940205
159.032,0.939192
159.165,0.93952
159.299,0.93914
159.432,0.939004
159.566,0.938688
159.699,0.938728
159.833,0.938574
159.967,0.938355
160.1,0.937857
160.234,0.937552
160.367,0.938042
160.501,0.937754
160.634,0.937435
160.768,0.937252
160.901,0.937661
161.035,0.937529
161.168,0.938118
161.302,0.937235
161.435,0.937795
161.569,0.937776
161.702,0.938134
161.836,0.936982
161.969,0.936388
162.103,0.937063
162.236,0.936566
162.37,0.936845
162.504,0.93717
162.637,0.936098
162.771,0.936475
162.904,0.936687
163.038,0.936693
163.171,0.936669
163.305,0.936616
163.438,0.936397
163.572,0.935861
163.705,0.936477
163.839,0.936271
163.972,0.93621
164.106,0.936487
164.239,0.936429
164.373,0.936503
164.506,0.936344
164.64,0.935941
164.774,0.935422
164.907,0.935764
165.041,0.935519
165.174,0.935634
165.308,0.935317
165.441,0.936064
165.575,0.935311
165.708,0.935916
165.842,0.935343
165.975,0.935266
166.109,0.934941
166.242,0.934606
166.376,0.934954
166.509,0.934277
166.643,0.934473
166.776,0.934731
166.91,0.934439
167.044,0.934537
167.177,0.934004
167.311,0.933932
167.444,0.933436
167.578,0.933842
167.711,0.933613
167.845,0.933646
167.978,0.933844
168.112,0.933663
168.245,0.933732
168.379,0.933816
168.512,0.934041
168.646,0.933632
168.779,0.933673
168.913,0.933884
169.046,0.933475
169.18,0.933237
169.313,0.934051
169.447,0.933591
169.581,0.93321
169.714,0.933085
169.848,0.933197
169.981,0.932831
170.115,0.933248
170.248,0.93322
170.382,0.933318
170.515,0.932964
170.649,0.932985
170.782,0.933475
170.916,0.932745
171.049,0.93252
171.183,0.932335
171.316,0.9324
171.45,0.932259
171.583,0.932409
171.717,0.93238
171.851,0.932995
171.984,0.932532
172.118,0.932177
172.251,0.93201
172.385,0.931946
172.518,0.932024
172.652,0.931771
172.785,0.932222
172.919,0.931763
173.052,0.931683
173.186,0.931526
173.319,0.931504
173.453,0.931132
173.586,0.930988
173.72,0.931005
173.853,0.931165
173.987,0.930417
174.12,0.930554
174.254,0.929958
174.388,0.929852
174.521,0.929705
174.655,0.928811
174.788,0.928975
174.922,0.929379
175.055,0.929554
175.189,0.928606
175.322,0.927859
175.456,0.927968
175.589,0.927316
175.723,0.926869
175.856,0.927551
175.99,0.92713
176.123,0.926642
176.257,0.926973
176.39,0.926523
176.524,0.92662
176.658,0.926757
176.791,0.926163
176.925,0.92559
177.058,0.925751
177.192,0.925031
177.325,0.92465
177.459,0.924423
177.592,0.923946
177.726,0.923438
177.859,0.923658
177.993,0.923343
178.126,0.923464
178.26,0.923219
178.393,0.922492
178.527,0.922566
178.66,0.921482
178.794,0.922295
178.927,0.922308
179.061,0.921596
179.195,0.920931
179.328,0.920596
179.462,0.92077
179.595,0.920337
179.729,0.919229
179.862,0.918565
179.996,0.918106
180.129,0.918893
180.263,0.918181
180.396,0.918403
180.53,0.917596
180.663,0.917523
180.797,0.916726
180.93,0.916371
181.064,0.915839
181.197,0.916333
181.331,0.916386
181.465,0.916443
181.598,0.915439
181.732,0.915207
181.865,0.914048
181.999,0.914719
182.132,0.914079
182.266,0.913672
182.399,0.913307
182.533,0.913822
182.666,0.913409
182.8,0.912763
182.933,0.912699
183.067,0.91231
183.2,0.912616
183.334,0.912322
183.467,0.911823
183.601,0.911173
183.735,0.911095
183.868,0.910839
184.002,0.910871
184.135,0.909954
184.269,0.909582
184.402,0.909618
184.536,0.908915
184.669,0.908371
184.803,0.907987
184.936,0.907876
185.07,0.907787
185.203,0.907505
185.337,0.906589
185.47,0.905942
185.604,0.905707
185.737,0.905012
185.871,0.904628
186.004,0.904007
186.138,0.903103
186.272,0.903203
186.405,0.903214
186.539,0.90295
186.672,0.902555
186.806,0.902098
186.939,0.9019
187.073,0.901918
187.206,0.901456
187.34,0.901027
187.473,0.901606
187.607,0.89973
187.74,0.899372
187.874,0.900063
188.007,0.898978
188.141,0.898568
188.274,0.898686
188.408,0.898416
188.542,0.898041
188.675,0.897762
188.809,0.896985
188.942,0.896195
189.076,0.895707
189.209,0.89618
189.343,0.895505
189.476,0.895202
189.61,0.89429
189.743,0.894131
189.877,0.893364
190.01,0.893156
190.144,0.8927
190.277,0.89248
190.411,0.892662
190.544,0.892292
190.678,0.89234
190.811,0.891519
190.945,0.891937
191.079,0.89153
191.212,0.890491
191.346,0.890278
191.479,0.890276
191.613,0.88957
191.746,0.888916
191.88,0.889147
192.013,0.889048
192.147,0.888245
192.28,0.888043
192.414,0.886562
192.547,0.885492
192.681,0.885576
192.814,0.885267
192.948,0.885239
193.081,0.884851
193.215,0.885445
193.349,0.88416
193.482,0.884758
193.616,0.883099
193.749,0.882884
193.883,0.882694
194.016,0.882362
194.15,0.88157
194.283,0.881086
194.417,0.880856
194.55,0.880719
194.684,0.880558
194.817,0.88131
194.951,0.880812
195.084,0.880155
195.218,0.880298
195.351,0.879408
195.485,0.879324
195.618,0.87916
195.752,0.879764
195.886,0.879046
196.019,0.878252
196.153,0.877559
196.286,0.877273
196.42,0.877236
196.553,0.876519
196.687,0.875661
196.82,0.876571
196.954,0.875537
197.087,0.875136
197.221,0.874887
197.354,0.874536
197.488,0.873537
197.494,0.873442