File: processed_data/40.0mA2msec-0.2mA18msec.csv
Capacity_mAh,Voltage_V
0.0,3.132388
0.133528,3.002149
0.267056,2.960101
0.400584,2.927828
0.534112,2.902345
0.66764,2.881302
0.801168,2.863417
0.934696,2.84865
1.06822,2.835522
1.20175,2.823808
1.33528,2.813615
1.46881,2.804173
1.60234,2.796268
1.73586,2.789602
1.86939,2.784538
2.00292,2.779426
2.13645,2.775605
2.26998,2.77238
2.4035,2.76976
2.53703,2.767158
2.67056,2.765382
2.80409,2.76355
2.93762,2.76194
3.07114,2.759844
3.20467,2.758134
3.3382,2.756026
3.47173,2.75473
3.60526,2.753072
3.73878,2.751174
3.87231,2.749295
4.00584,2.748082
4.13937,2.74657
4.2729,2.745378
4.40642,2.744469
4.53995,2.743001
4.67348,2.741472
4.80701,2.740084
4.94054,2.739249
5.07406,2.737934
5.20759,2.736768
5.34112,2.735536
5.47465,2.734387
5.60818,2.733195
5.7417,2.732283
5.87523,2.730898
6.00876,2.729743
6.14229,2.729376
6.27582,2.728158
6.40934,2.727395
6.54287,2.726654
6.6764,2.725722
6.80993,2.724556
6.94346,2.724833
7.07698,2.724055
7.21051,2.723321
7.34404,2.722509
7.47757,2.722106
7.61109,2.721356
7.74462,2.721246
7.87815,2.720355
8.01168,2.719913
8.14521,2.719511
8.27873,2.719111
8.41226,2.718328
8.54579,2.718132
8.67932,2.718093
8.81285,2.717517
8.94637,2.71754
9.0799,2.716628
9.21343,2.716808
9.34696,2.716383
9.48049,2.715995
9.61401,2.716038
9.74754,2.715881
9.88107,2.715335
10.0146,2.71537
10.1481,2.715567
10.2817,2.715031
10.4152,2.715194
10.5487,2.714865
10.6822,2.715417
10.8158,2.714892
10.9493,2.714403
11.0828,2.714889
11.2164,2.71507
11.3499,2.71483
11.4834,2.714279
11.6169,2.714472
11.7505,2.714563
11.884,2.714466
12.0175,2.714387
12.151,2.714391
12.2846,2.71421
12.4181,2.714722
12.5516,2.714626
12.6852,2.713764
12.8187,2.714038
12.9522,2.71401
13.0857,2.713717
13.2193,2.713759
13.3528,2.713213
13.4863,2.713696
13.6199,2.714078
13.7534,2.714081
13.8869,2.713496
14.0204,2.713421
14.154,2.713635
14.2875,2.713476
14.421,2.713808
14.5545,2.713729
14.6881,2.713762
14.8216,2.713382
14.9551,2.713866
15.0887,2.714076
15.2222,2.714118
15.3557,2.713658
15.4892,2.713794
15.6228,2.714207
15.7563,2.714246
15.8898,2.71394
16.0234,2.713594
16.1569,2.713415
16.2904,2.712895
16.4239,2.713071
16.5575,2.712967
16.691,2.712865
16.8245,2.712306
16.9581,2.712734
17.0916,2.712668
17.2251,2.712895
17.3586,2.712742
17.4922,2.713059
17.6257,2.712811
17.7592,2.713036
17.8927,2.713029
18.0263,2.712896
18.1598,2.712525
18.2933,2.712631
18.4269,2.712952
18.5604,2.712949
18.6939,2.712674
18.8274,2.712914
18.961,2.712408
19.0945,2.712481
19.228,2.712519
19.3616,2.712347
19.4951,2.71234
19.6286,2.71219
19.7621,2.712281
19.8957,2.712427
20.0292,2.711961
20.1627,2.711738
20.2963,2.711594
20.4298,2.711222
20.5633,2.711091
20.6968,2.711186
20.8304,2.711214
20.9639,2.711185
21.0974,2.711191
21.2309,2.71157
21.3645,2.711201
21.498,2.711033
21.6315,2.710883
21.7651,2.710974
21.8986,2.71103
22.0321,2.711323
22.1656,2.711053
22.2992,2.710749
22.4327,2.711074
22.5662,2.711013
22.6998,2.711411
22.8333,2.711135
22.9668,2.711382
23.1003,2.71137
23.2339,2.711505
23.3674,2.711211
23.5009,2.711084
23.6345,2.710974
23.768,2.710733
23.9015,2.710934
24.035,2.710648
24.1686,2.710217
24.3021,2.710417
24.4356,2.71024
24.5691,2.710032
24.7027,2.709633
24.8362,2.709342
24.9697,2.709393
25.1033,2.709043
25.2368,2.708914
25.3703,2.70834
25.5038,2.70848
25.6374,2.708018
25.7709,2.707697
25.9044,2.707234
26.038,2.707064
26.1715,2.707347
26.305,2.707221
26.4385,2.706642
26.5721,2.706768
26.7056,2.706537
26.8391,2.706565
26.9727,2.706569
27.1062,2.705946
27.2397,2.706074
27.3732,2.706266
27.5068,2.706102
27.6403,2.705938
27.7738,2.705501
27.9073,2.705788
28.0409,2.705358
28.1744,2.705127
28.3079,2.704868
28.4415,2.704769
28.575,2.704615
28.7085,2.704794
28.842,2.704287
28.9756,2.704086
29.1091,2.703922
29.2426,2.703798
29.3762,2.703725
29.5097,2.703805
29.6432,2.70287
29.7767,2.702607
29.9103,2.702608
30.0438,2.703186
30.1773,2.702569
30.3109,2.702366
30.4444,2.702303
30.5779,2.702448
30.7114,2.701796
30.845,2.701738
30.9785,2.701965
31.112,2.70148
31.2455,2.701206
31.3791,2.701171
31.5126,2.701138
31.6461,2.700813
31.7797,2.701165
31.9132,2.701049
32.0467,2.700966
32.1802,2.70054
32.3138,2.700888
32.4473,2.700515
32.5808,2.700874
32.7144,2.700793
32.8479,2.700528
32.9814,2.700045
33.1149,2.699837
33.2485,2.699655
33.382,2.699632
33.5155,2.6991
33.6491,2.699032
33.7826,2.698595
33.9161,2.697918
34.0496,2.697838
34.1832,2.697451
34.3167,2.697013
34.4502,2.696413
34.5837,2.696169
34.7173,2.695758
34.8508,2.69579
34.9843,2.694943
35.1179,2.694613
35.2514,2.6947
35.3849,2.6944
35.5184,2.694494
35.652,2.694312
35.7855,2.694462
35.919,2.69427
36.0526,2.694406
36.1861,2.694244
36.3196,2.694435
36.4531,2.694157
36.5867,2.694032
36.7202,2.694089
36.8537,2.693817
36.9873,2.693918
37.1208,2.694255
37.2543,2.693965
37.3878,2.694087
37.5214,2.693807
37.6549,2.692916
37.7884,2.693169
37.9219,2.692892
38.0555,2.692306
38.189,2.692026
38.3225,2.69194
38.4561,2.691932
38.5896,2.691443
38.7231,2.691393
38.8566,2.691196
38.9902,2.690789
39.1237,2.690826
39.2572,2.690279
39.3908,2.690064
39.5243,2.689492
39.6578,2.689522
39.7913,2.689163
39.9249,2.68914
40.0584,2.688838
40.1919,2.688779
40.3255,2.68848
40.459,2.688215
40.5925,2.68781
40.726,2.687512
40.8596,2.687487
40.9931,2.687192
41.1266,2.686301
41.2601,2.685879
41.3937,2.685475
41.5272,2.6852
41.6607,2.684513
41.7943,2.684559
41.9278,2.684221
42.0613,2.68393
42.1948,2.684001
42.3284,2.683714
42.4619,2.68327
42.5954,2.683304
42.729,2.683255
42.8625,2.682945
42.996,2.681986
43.1295,2.681936
43.2631,2.682438
43.3966,2.681356
43.5301,2.68142
43.6636,2.681141
43.7972,2.681753
43.9307,2.680833
44.0642,2.680368
44.1978,2.680673
44.3313,2.680638
44.4648,2.680239
44.5983,2.679854
44.7319,2.679595
44.8654,2.679
44.9989,2.678645
45.1325,2.678249
45.266,2.677919
45.3995,2.677377
45.533,2.677109
45.6666,2.676883
45.8001,2.676827
45.9336,2.676809
46.0672,2.676701
46.2007,2.675496
46.3342,2.675158
46.4677,2.674872
46.6013,2.674423
46.7348,2.674368
46.8683,2.673703
47.0018,2.673318
47.1354,2.673495
47.2689,2.673251
47.4024,2.67306
47.536,2.673149
47.6695,2.672121
47.803,2.671778
47.9365,2.670968
48.0701,2.67026
48.2036,2.670085
48.3371,2.669988
48.4707,2.669507
48.6042,2.668869
48.7377,2.668635
48.8712,2.668046
49.0048,2.667942
49.1383,2.667649
49.2718,2.667086
49.4054,2.667145
49.5389,2.666689
49.6724,2.66634
49.8059,2.666077
49.9395,2.665998
50.073,2.665644
50.2065,2.665299
50.34,2.664658
50.4736,2.664159
50.6071,2.663844
50.7406,2.663456
50.8742,2.663212
51.0077,2.662927
51.1412,2.662899
51.2747,2.66249
51.4083,2.662398
51.5418,2.66237
51.6753,2.662146
51.8089,2.66239
51.9424,2.661938
52.0759,2.661824
52.2094,2.661486
52.343,2.660824
52.4765,2.660367
52.61,2.660122
52.7436,2.659791
52.8771,2.659191
53.0106,2.659056
53.1441,2.658072
53.2777,2.65793
53.4112,2.657026
53.5447,2.656942
53.6782,2.656518
53.8118,2.656394
53.9453,2.655792
54.0788,2.655035
54.2124,2.654826
54.3459,2.654366
54.4794,2.654218
54.6129,2.653998
54.7465,2.653744
54.88,2.653773
55.0135,2.653522
55.1471,2.653456
55.2806,2.652752
55.4141,2.652505
55.5476,2.651666
55.6812,2.651915
55.8147,2.651129
55.9482,2.651031
56.0818,2.650127
56.2153,2.65021
56.3488,2.649856
56.4823,2.649203
56.6159,2.64889
56.7494,2.648674
56.8829,2.648413
57.0164,2.647413
57.15,2.646535
57.2835,2.646639
57.417,2.645959
57.5506,2.645824
57.6841,2.645078
57.8176,2.644743
57.9511,2.644256
58.0847,2.643682
58.2182,2.643623
58.3517,2.643368
58.4853,2.643068
58.6188,2.642722
58.7523,2.641811
58.8858,2.641188
59.0194,2.640954
59.1529,2.640384
59.2864,2.640116
59.42,2.63956
59.5535,2.63889
59.687,2.638533
59.8205,2.637858
59.9541,2.637708
60.0876,2.637772
60.2211,2.637666
60.3546,2.637736
60.4882,2.637645
60.6217,2.63771
60.7552,2.637264
60.8888,2.637514
61.0223,2.636785
61.1558,2.636595
61.2893,2.636412
61.4229,2.635777
61.5564,2.635406
61.6899,2.634849
61.8235,2.63444
61.957,2.633699
62.0905,2.633389
62.224,2.632813
62.3576,2.632144
62.4911,2.631866
62.6246,2.631344
62.7582,2.630892
62.8917,2.630605
63.0252,2.629984
63.1587,2.629477
63.2923,2.628731
63.4258,2.628933
63.5593,2.628462
63.6928,2.628217
63.8264,2.627392
63.9599,2.626719
64.0934,2.626521
64.227,2.626663
64.3605,2.626022
64.494,2.626196
64.6275,2.625527
64.7611,2.625512
64.8946,2.625224
65.0281,2.624376
65.1617,2.624519
65.2952,2.624135
65.4287,2.624206
65.5622,2.623953
65.6958,2.623864
65.8293,2.623266
65.9628,2.623301
66.0964,2.623068
66.2299,2.622468
66.3634,2.62205
66.4969,2.621108
66.6305,2.621337
66.764,2.62024
66.8975,2.62004
67.031,2.618892
67.1646,2.61931
67.2981,2.618419
67.4316,2.618092
67.5652,2.617448
67.6987,2.617358
67.8322,2.616891
67.9657,2.616491
68.0993,2.616172
68.2328,2.614903
68.3663,2.614306
68.4999,2.613431
68.6334,2.613161
68.7669,2.612675
68.9004,2.611597
69.034,2.61092
69.1675,2.61049
69.301,2.609915
69.4346,2.609358
69.5681,2.60876
69.7016,2.608228
69.8351,2.607629
69.9687,2.607697
70.1022,2.606704
70.2357,2.606122
70.3692,2.605181
70.5028,2.604415
70.6363,2.603629
70.7698,2.603412
70.9034,2.602854
71.0369,2.601988
71.1704,2.601895
71.3039,2.601037
71.4375,2.600877
71.571,2.600427
71.7045,2.599504
71.8381,2.599472
71.9716,2.598991
72.1051,2.598096
72.2386,2.597554
72.3722,2.596798
72.5057,2.596056
72.6392,2.595782
72.7727,2.595371
72.9063,2.594739
73.0398,2.594125
73.1733,2.593338
73.3069,2.593441
73.4404,2.592494
73.5739,2.592093
73.7074,2.591141
73.841,2.590745
73.9745,2.589676
74.108,2.589467
74.2416,2.588639
74.3751,2.588634
74.5086,2.58794
74.6421,2.587549
74.7757,2.587164
74.9092,2.586461
75.0427,2.586254
75.1763,2.586123
75.3098,2.585349
75.4433,2.584918
75.5768,2.584453
75.7104,2.584462
75.8439,2.583897
75.9774,2.583668
76.1109,2.583449
76.2445,2.583094
76.378,2.582743
76.5115,2.582486
76.6451,2.582006
76.7786,2.581307
76.9121,2.580736
77.0456,2.580278
77.1792,2.57939
77.3127,2.579076
77.4462,2.579246
77.5798,2.578526
77.7133,2.577934
77.8468,2.577516
77.9803,2.57748
78.1139,2.576986
78.2474,2.576744
78.3809,2.576522
78.5145,2.575797
78.648,2.575104
78.7815,2.574513
78.915,2.574001
79.0486,2.573133
79.1821,2.57229
79.3156,2.571482
79.4491,2.570168
79.5827,2.569458
79.7162,2.569328
79.8497,2.568488
79.9833,2.568066
80.1168,2.567712
80.2503,2.566822
80.3838,2.566324
80.5174,2.566282
80.6509,2.565638
80.7844,2.565617
80.918,2.56516
81.0515,2.5646
81.185,2.563845
81.3185,2.564004
81.4521,2.563459
81.5856,2.563389
81.7191,2.562765
81.8527,2.562379
81.9862,2.562024
82.1197,2.561717
82.2532,2.561515
82.3868,2.561484
82.5203,2.560939
82.6538,2.560744
82.7873,2.559727
82.9209,2.559827
83.0544,2.55914
83.1879,2.558498
83.3215,2.558294
83.455,2.557471
83.5885,2.556746
83.722,2.556173
83.8556,2.555552
83.9891,2.55524
84.1226,2.554688
84.2562,2.554333
84.3897,2.554038
84.5232,2.553305
84.6567,2.552874
84.7903,2.552681
84.9238,2.551936
85.0573,2.551104
85.1909,2.550964
85.3244,2.550387
85.4579,2.54964
85.5914,2.549091
85.725,2.548747
85.8585,2.547922
85.992,2.547433
86.1255,2.546842
86.2591,2.546222
86.3926,2.54546
86.5261,2.545637
86.6597,2.545071
86.7932,2.543914
86.9267,2.543401
87.0602,2.543349
87.1938,2.542353
87.3273,2.542002
87.4608,2.541457
87.5944,2.54095
87.7279,2.540234
87.8614,2.54
87.9949,2.539164
88.1285,2.538301
88.262,2.538263
88.3955,2.537505
88.5291,2.537004
88.6626,2.536245
88.7961,2.535419
88.9296,2.534799
89.0632,2.534049
89.1967,2.533526
89.3302,2.533285
89.4637,2.532586
89.5973,2.531734
89.7308,2.531065
89.8643,2.530557
89.9979,2.52975
90.1314,2.528804
90.2649,2.528527
90.3984,2.527323
90.532,2.526714
90.6655,2.52559
90.799,2.525046
90.9326,2.52418
91.0661,2.523436
91.1996,2.522851
91.3331,2.521684
91.4667,2.52108
91.6002,2.520532
91.7337,2.519753
91.8673,2.519749
92.0008,2.518802
92.1343,2.518126
92.2678,2.517515
92.4014,2.516606
92.5349,2.51601
92.6684,2.514869
92.8019,2.514518
92.9355,2.513921
93.069,2.513104
93.2025,2.512825
93.3361,2.512138
93.4696,2.511807
93.6031,2.511198
93.7366,2.510418
93.8702,2.509843
94.0037,2.50881
94.1372,2.507969
94.2708,2.508021
94.4043,2.506585
94.5378,2.506195
94.6713,2.50539
94.8049,2.504865
94.9384,2.50416
95.0719,2.503498
95.2055,2.502801
95.339,2.502254
95.4725,2.500964
95.606,2.50046
95.7396,2.499702
95.8731,2.498188
96.0066,2.497282
96.1401,2.496912
96.2737,2.495891
96.4072,2.494909
96.5407,2.494419
96.6743,2.493436
96.8078,2.492718
96.9413,2.492242
97.0748,2.49142
97.2084,2.490323
97.3419,2.489295
97.4754,2.488798
97.609,2.487685
97.7425,2.486843
97.876,2.485737
98.0095,2.484793
98.1431,2.483931
98.2766,2.483333
98.4101,2.482353
98.5437,2.481732
98.6772,2.480711
98.8107,2.480016
98.9442,2.479212
99.0778,2.478695
99.2113,2.477252
99.3448,2.476531
99.4783,2.475538
99.6119,2.474796
99.7454,2.473384
99.8789,2.472874
100.012,2.471857
100.146,2.470855
100.28,2.469781
100.413,2.468769
100.547,2.468229
100.68,2.466831
100.814,2.465907
100.947,2.464902
101.081,2.463745
101.214,2.463161
101.348,2.462449
101.481,2.461605
101.615,2.460628
101.748,2.459573
101.882,2.458655
102.015,2.457612
102.149,2.456412
102.282,2.455774
102.416,2.454554
102.549,2.45399
102.683,2.452873
102.817,2.451768
102.95,2.450529
103.084,2.449578
103.217,2.448317
103.351,2.44738
103.484,2.44567
103.618,2.444074
103.751,2.441951
103.885,2.440628
104.018,2.438796
104.152,2.437245
104.285,2.435707
104.419,2.434261
104.552,2.43297
104.686,2.431311
104.819,2.430171
104.953,2.428705
105.087,2.427159
105.22,2.42643
105.354,2.42499
105.487,2.423854
105.621,2.422172
105.754,2.421268
105.888,2.41955
106.021,2.418407
106.155,2.41712
106.288,2.416013
106.422,2.41467
106.555,2.412951
106.689,2.411246
106.822,2.409878
106.956,2.408164
107.089,2.40676
107.223,2.405523
107.356,2.404824
107.49,2.403262
107.624,2.401569
107.757,2.400215
107.891,2.39889
108.024,2.397552
108.158,2.39644
108.291,2.394996
108.425,2.394334
108.558,2.393292
108.692,2.392819
108.825,2.392713
108.959,2.391738
109.092,2.390294
109.226,2.389529
109.359,2.388245
109.493,2.387381
109.626,2.386431
109.76,2.38521
109.894,2.383821
110.027,2.382839
110.161,2.381778
110.294,2.380839
110.428,2.379188
110.561,2.377775
110.695,2.376782
110.828,2.375578
110.962,2.374241
111.095,2.372941
111.229,2.371814
111.362,2.370373
111.496,2.369138
111.629,2.36805
111.763,2.366452
111.896,2.364943
112.03,2.363721
112.164,2.361644
112.297,2.360479
112.431,2.358566
112.564,2.357658
112.698,2.355963
112.831,2.354183
112.965,2.352763
113.098,2.351445
113.232,2.349757
113.365,2.348165
113.499,2.346934
113.632,2.345196
113.766,2.343595
113.899,2.342058
114.033,2.340243
114.166,2.338459
114.3,2.336771
114.433,2.335908
114.567,2.33375
114.701,2.331813
114.834,2.329901
114.968,2.328397
115.101,2.32628
115.235,2.324932
115.368,2.322814
115.502,2.320914
115.635,2.319443
115.769,2.317245
115.902,2.315564
116.036,2.313342
116.169,2.311056
116.303,2.309795
116.436,2.30739
116.57,2.305765
116.703,2.303682
116.837,2.301965
116.971,2.299706
117.104,2.297338
117.238,2.295241
117.371,2.293196
117.505,2.291275
117.638,2.289008
117.772,2.286299
117.905,2.284442
118.039,2.282132
118.172,2.279974
118.306,2.277259
118.439,2.27532
118.573,2.273371
118.706,2.271134
118.84,2.268476
118.973,2.266193
119.107,2.264013
119.24,2.262136
119.374,2.259762
119.508,2.257182
119.641,2.254715
119.775,2.252455
119.908,2.249353
120.042,2.247263
120.175,2.244617
120.309,2.241697
120.442,2.238724
120.576,2.235682
120.709,2.232459
120.843,2.230462
120.976,2.227667
121.11,2.224522
121.243,2.221597
121.377,2.219037
121.51,2.215918
121.644,2.21344
121.778,2.2095
121.911,2.206775
122.045,2.203969
122.178,2.200616
122.312,2.19803
122.445,2.194462
122.579,2.191108
122.712,2.187755
122.846,2.18454
122.979,2.180438
123.113,2.177521
123.246,2.174047
123.38,2.170545
123.513,2.155891
123.647,2.154417
123.78,2.153049
123.914,2.150547
124.047,2.147646
124.181,2.145532
124.315,2.144367
124.448,2.138967
124.582,2.138565
124.715,2.137732
124.849,2.133999
124.982,2.122568
125.116,2.117676
125.249,2.112896
125.383,2.107806
125.516,2.102861
125.65,2.098397
125.783,2.093191
125.917,2.087355
126.05,2.081901
126.184,2.076812
126.317,2.070679
126.451,2.064948
126.585,2.059184
126.718,2.053219
126.852,2.047469
126.985,2.041048
127.119,2.034665
127.252,2.028632
127.386,2.021952
127.519,2.014736
127.653,2.008191
127.786,2.000604
127.92,1.993633
128.053,1.985635
128.187,1.978606
128.32,1.970842
128.454,1.9633
128.587,1.954514
128.721,1.94643
128.855,1.937667
128.988,1.929205
129.122,1.921085
129.255,1.911691
129.389,1.902706
129.522,1.893513
129.656,1.883971
129.789,1.874503
129.923,1.864548
130.056,1.853742
130.19,1.843584
130.323,1.833035
130.457,1.821557
130.59,1.81121
130.724,1.800111
130.857,1.78884
130.991,1.777216
131.124,1.765055
131.258,1.753322
131.392,1.741298
131.525,1.729752
131.659,1.717365
131.792,1.704339
131.926,1.69146
132.059,1.67892
132.193,1.665672
132.326,1.6529
132.46,1.639321
132.593,1.625369
132.727,1.612229
132.86,1.599172
132.994,1.58536
133.127,1.571632
133.261,1.558305
133.394,1.54493
133.528,1.531755
133.662,1.518294
133.795,1.505145
133.929,1.49112
134.062,1.478346
134.196,1.465204
134.329,1.452149
134.463,1.439493
134.596,1.426323
134.73,1.413523
134.863,1.401026
134.997,1.388129
135.13,1.376194
135.264,1.363476
135.397,1.351328
135.531,1.339586
135.664,1.327923
135.798,1.31665
135.931,1.304619
136.065,1.292986
136.199,1.281586
136.332,1.269876
136.466,1.259079
136.599,1.247643
136.733,1.236878
136.866,1.22587
137,1.215365
137.133,1.204319
137.267,1.193173
137.4,1.181136
137.534,1.167911
137.667,1.141144
137.801,1.114654
137.934,1.099387
138.068,1.085655
138.201,1.073648
138.335,1.06573
138.469,1.059472
138.602,1.053362
138.736,1.048402
138.869,1.043965
139.003,1.039573
139.136,1.035481
139.27,1.031567
139.403,1.028876
139.537,1.026173
139.67,1.023437
139.804,1.021276
139.937,1.018546
140.071,1.016907
140.204,1.015246
140.338,1.013618
140.471,1.012035
140.605,1.010711
140.738,1.010039
140.872,1.008178
141.006,1.00668
141.139,1.005925
141.273,1.004958
141.406,1.003128
141.54,1.002565
141.673,1.001201
141.807,1.000484
141.94,0.999847
142.074,0.99908
142.207,0.998211
142.341,0.996684
142.474,0.995924
142.608,0.996408
142.741,0.995882
142.875,0.99579
143.008,0.995049
143.142,0.995479
143.276,0.994954
143.409,0.994868
143.543,0.994363
143.676,0.994619
143.81,0.99449
143.943,0.994513
144.077,0.994423
144.21,0.994292
144.344,0.993755
144.477,0.993971
144.611,0.993672
144.744,0.993879
144.878,0.994315
145.011,0.994237
145.145,0.994103
145.278,0.994857
145.412,0.994253
145.545,0.994484
145.679,0.994596
145.813,0.994761
145.946,0.995035
146.08,0.995086
146.213,0.995698
146.347,0.99552
146.48,0.995691
146.614,0.995669
146.747,0.996004
146.881,0.99584
147.014,0.996147
147.148,0.996507
147.281,0.996158
147.415,0.996508
147.548,0.996135
147.682,0.996725
147.815,0.997558
147.949,0.997636
148.083,0.997733
148.216,0.998595
148.35,0.999144
148.483,0.999334
148.617,1.000042
148.75,1.000625
148.884,1.000381
149.017,1.000614
149.151,1.001236
149.284,1.001742
149.418,1.002428
149.551,1.002944
149.685,1.003366
149.818,1.003486
149.952,1.003648
150.085,1.004311
150.219,1.005241
150.353,1.005737
150.486,1.005862
150.62,1.00648
150.753,1.006866
150.887,1.007463
151.02,1.007706
151.154,1.008276
151.287,1.008761
151.421,1.009344
151.554,1.009706
151.688,1.010251
151.821,1.011177
151.955,1.011634
152.088,1.011912
152.222,1.012657
152.355,1.012767
152.489,1.013534
152.622,1.014231
152.756,1.015191
152.89,1.015768
153.023,1.016404
153.157,1.017599
153.29,1.017638
153.424,1.018607
153.557,1.018358
153.691,1.019066
153.824,1.019222
153.958,1.019766
154.091,1.020433
154.225,1.021063
154.358,1.02137
154.492,1.021938
154.625,1.022258
154.759,1.022876
154.892,1.023264
155.026,1.024284
155.16,1.024548
155.293,1.025595
155.427,1.025976
155.56,1.026881
155.694,1.027059
155.827,1.027365
155.961,1.028099
156.094,1.028489
156.228,1.0293
156.361,1.029173
156.495,1.030147
156.628,1.030532
156.762,1.030919
156.895,1.031847
157.029,1.03247
157.162,1.033121
157.296,1.033694
157.429,1.033875
157.563,1.034719
157.697,1.035161
157.83,1.035411
157.964,1.036708
158.097,1.037125
158.231,1.037303
158.364,1.037788
158.498,1.037991
158.631,1.038635
158.765,1.038623
158.898,1.039575
159.032,1.040322
159.165,1.040645
159.299,1.041116
159.432,1.041547
159.566,1.042089
159.699,1.042533
159.833,1.042843
159.967,1.043397
160.1,1.043478
160.234,1.04403
160.367,1.044458
160.501,1.044728
160.634,1.044812
160.768,1.045437
160.901,1.046117
161.035,1.04689
161.168,1.047467
161.302,1.047613
161.435,1.048444
161.569,1.04938
161.702,1.049706
161.836,1.049935
161.969,1.050183
162.103,1.050911
162.236,1.050974
162.37,1.051153
162.504,1.051737
162.637,1.05228
162.771,1.053232
162.904,1.053665
163.038,1.054555
163.171,1.054966
163.305,1.054732
163.438,1.05528
163.572,1.055991
163.705,1.056461
163.839,1.056509
163.972,1.056828
164.106,1.057213
164.239,1.057744
164.373,1.058354
164.506,1.058239
164.64,1.058747
164.774,1.059728
164.907,1.060333
165.041,1.060706
165.174,1.061174
165.308,1.061503
165.441,1.061904
165.575,1.062752
165.708,1.063387
165.842,1.063918
165.975,1.064068
166.109,1.064715
166.242,1.065394
166.376,1.065636
166.509,1.06639
166.643,1.067074
166.776,1.06755
166.91,1.067657
167.044,1.068413
167.177,1.068884
167.311,1.069584
167.444,1.070106
167.578,1.070827
167.711,1.071129
167.845,1.071257
167.978,1.071737
168.112,1.072295
168.245,1.072519
168.379,1.073496
168.512,1.073578
168.646,1.074022
168.779,1.074055
168.913,1.074384
169.046,1.074943
169.18,1.07522
169.313,1.075353
169.447,1.075845
169.581,1.076328
169.714,1.076355
169.848,1.07677
169.981,1.077046
170.115,1.077386
170.248,1.077989
170.382,1.078719
170.515,1.078513
170.649,1.078728
170.782,1.078706
170.916,1.079194
171.049,1.079643
171.183,1.080194
171.316,1.080553
171.45,1.080621
171.583,1.080879
171.717,1.081218
171.851,1.081198
171.984,1.081518
172.118,1.08182
172.251,1.081717
172.385,1.08203
172.518,1.082254
172.652,1.082577
172.785,1.082758
172.919,1.083166
173.052,1.083442
173.186,1.083709
173.319,1.084019
173.453,1.083542
173.586,1.083826
173.72,1.083941
173.853,1.084189
173.987,1.083857
174.12,1.084201
174.254,1.084049
174.388,1.084317
174.521,1.084742
174.655,1.084748
174.788,1.085221
174.922,1.085442
175.055,1.085599
175.189,1.085846
175.322,1.086061
175.456,1.086308
175.589,1.086309
175.723,1.086633
175.856,1.086721
175.99,1.086761
176.123,1.087167
176.257,1.086992
176.39,1.087054
176.524,1.08756
176.658,1.087675
176.791,1.087472
176.925,1.087433
177.058,1.087552
177.192,1.087641
177.325,1.087727
177.459,1.087835
177.592,1.087956
177.726,1.088424
177.859,1.088632
177.993,1.088413
178.126,1.088369
178.26,1.088604
178.393,1.088549
178.527,1.08853
178.66,1.088554
178.794,1.088372
178.927,1.088479
179.061,1.088488
179.195,1.088526
179.328,1.088075
179.462,1.087933
179.595,1.088428
179.729,1.08816
179.862,1.08783
179.996,1.088263
180.129,1.088354
180.263,1.088753
180.396,1.088265
180.53,1.088382
180.663,1.088235
180.797,1.088603
180.93,1.088329
181.064,1.088217
181.197,1.088488
181.331,1.088222
181.465,1.088533
181.598,1.088477
181.732,1.088734
181.865,1.088194
181.999,1.088468
182.132,1.088413
182.266,1.088159
182.399,1.088423
182.533,1.088285
182.666,1.088796
182.8,1.088287
182.933,1.088363
183.067,1.088331
183.2,1.088048
183.334,1.088271
183.467,1.088118
183.601,1.087683
183.735,1.087722
183.868,1.087622
184.002,1.087751
184.135,1.08685
184.269,1.086843
184.402,1.086382
184.536,1.086304
184.669,1.085749
184.803,1.085801
184.936,1.085733
185.07,1.085379
185.203,1.08572
185.337,1.084911
185.47,1.085243
185.604,1.084605
185.737,1.084852
185.871,1.084906
186.004,1.084803
186.138,1.084631
186.272,1.084917
186.405,1.084393
186.539,1.084097
186.672,1.084646
186.806,1.083731
186.939,1.083615
187.073,1.083451
187.206,1.083386
187.34,1.083214
187.473,1.082915
187.607,1.083091
187.74,1.082723
187.874,1.082375
188.007,1.082344
188.141,1.081683
188.274,1.081849
188.408,1.081649
188.542,1.081699
188.675,1.081123
188.809,1.080937
188.942,1.08042
189.076,1.080601
189.209,1.079793
189.343,1.079998
189.476,1.07927
189.61,1.078845
189.743,1.078952
189.877,1.078299
190.01,1.077826
190.144,1.077663
190.277,1.077752
190.411,1.07725
190.544,1.077094
190.678,1.077291
190.811,1.076698
190.945,1.076897
191.079,1.076696
191.212,1.076379
191.346,1.076144
191.479,1.075871
191.613,1.075611
191.746,1.075026
191.88,1.075022
192.013,1.074975
192.147,1.07448
192.28,1.074234
192.414,1.074317
192.547,1.073914
192.681,1.073742
192.814,1.074055
192.948,1.073797
193.081,1.073558
193.215,1.07329
193.349,1.072543
193.482,1.07262
193.616,1.072087
193.749,1.071702
193.883,1.071237
194.016,1.070717
194.15,1.070728
194.283,1.069919
194.417,1.06993
194.55,1.069331
194.684,1.068697
194.817,1.069043
194.951,1.068703
195.084,1.068294
195.218,1.067742
195.351,1.067286
195.485,1.066984
195.618,1.066518
195.752,1.066809
195.886,1.066192
196.019,1.065836
196.153,1.065571
196.286,1.065199
196.42,1.065125
196.553,1.065058
196.687,1.06423
196.82,1.064069
196.954,1.064182
197.087,1.064179
197.221,1.063416
197.354,1.062985
197.395,1.06306