File: processed_data/50.0mA1msec-0.2mA19msec.csv
Capacity_mAh,Voltage_V
0.0,3.185591
0.130764,3.050976
0.261528,2.997418
0.392292,2.961845
0.523056,2.935568
0.65382,2.915072
0.784585,2.897972
0.915349,2.883358
1.04611,2.870866
1.17688,2.860011
1.30764,2.849649
1.4384,2.841146
1.56917,2.829185
1.69993,2.824228
1.8307,2.818181
1.96146,2.813222
2.09223,2.807624
2.22299,2.80427
2.35375,2.800704
2.48452,2.798617
2.61528,2.796904
2.74605,2.794727
2.87681,2.793191
3.00757,2.791634
3.13834,2.789649
3.2691,2.788883
3.39987,2.787755
3.53063,2.787216
3.66139,2.786489
3.79216,2.785538
3.92292,2.785039
4.05369,2.783897
4.18445,2.783463
4.31521,2.782766
4.44598,2.782103
4.57674,2.78171
4.70751,2.780841
4.83827,2.779844
4.96904,2.779654
5.0998,2.779071
5.23056,2.778481
5.36133,2.777632
5.49209,2.777026
5.62286,2.776722
5.75362,2.776467
5.88438,2.775554
6.01515,2.774936
6.14591,2.775145
6.27668,2.77481
6.40744,2.774405
6.5382,2.773505
6.66897,2.773168
6.79973,2.773172
6.9305,2.772733
7.06126,2.771999
7.19202,2.771641
7.32279,2.771896
7.45355,2.771366
7.58432,2.770759
7.71508,2.770117
7.84585,2.769724
7.97661,2.76972
8.10737,2.76959
8.23814,2.769506
8.3689,2.769301
8.49967,2.769508
8.63043,2.769525
8.76119,2.769073
8.89196,2.769067
9.02272,2.768611
9.15349,2.768351
9.28425,2.767741
9.41501,2.767687
9.54578,2.767452
9.67654,2.767142
9.80731,2.766949
9.93807,2.766546
10.0688,2.76588
10.1996,2.766306
10.3304,2.766912
10.4611,2.767694
10.5919,2.768116
10.7227,2.767744
10.8534,2.768234
10.9842,2.768234
11.1149,2.768194
11.2457,2.768198
11.3765,2.768101
11.5072,2.768243
11.638,2.767599
11.7688,2.767765
11.8995,2.767314
12.0303,2.767267
12.1611,2.766943
12.2918,2.766642
12.4226,2.766915
12.5534,2.766452
12.6841,2.766239
12.8149,2.766288
12.9456,2.765403
13.0764,2.765361
13.2072,2.763873
13.3379,2.764471
13.4687,2.764642
13.5995,2.76512
13.7302,2.765022
13.861,2.765842
13.9918,2.765764
14.1225,2.765616
14.2533,2.765843
14.384,2.766057
14.5148,2.765857
14.6456,2.765367
14.7763,2.765233
14.9071,2.765129
15.0379,2.764657
15.1686,2.765249
15.2994,2.765459
15.4302,2.765533
15.5609,2.765499
15.6917,2.765527
15.8225,2.765068
15.9532,2.765215
16.084,2.764936
16.2147,2.764848
16.3455,2.764533
16.4763,2.764992
16.607,2.765127
16.7378,2.764589
16.8686,2.764636
16.9993,2.764346
17.1301,2.764106
17.2609,2.764064
17.3916,2.763966
17.5224,2.763988
17.6532,2.763654
17.7839,2.763794
17.9147,2.763721
18.0454,2.763502
18.1762,2.762844
18.307,2.762144
18.4377,2.762631
18.5685,2.763784
18.6993,2.763324
18.83,2.762989
18.9608,2.763256
19.0916,2.763772
19.2223,2.763397
19.3531,2.763831
19.4838,2.764639
19.6146,2.764484
19.7454,2.764637
19.8761,2.764948
20.0069,2.764747
20.1377,2.764992
20.2684,2.76511
20.3992,2.764879
20.53,2.765024
20.6607,2.764892
20.7915,2.764822
20.9223,2.765248
21.053,2.76502
21.1838,2.765085
21.3145,2.764385
21.4453,2.765418
21.5761,2.764535
21.7068,2.764771
21.8376,2.764149
21.9684,2.76439
22.0991,2.765034
22.2299,2.765413
22.3607,2.765712
22.4914,2.766143
22.6222,2.766516
22.753,2.765793
22.8837,2.765935
23.0145,2.766028
23.1452,2.766333
23.276,2.766586
23.4068,2.765798
23.5375,2.766047
23.6683,2.765743
23.7991,2.765903
23.9298,2.765585
24.0606,2.765025
24.1914,2.764906
24.3221,2.765296
24.4529,2.764474
24.5836,2.764665
24.7144,2.763919
24.8452,2.764127
24.9759,2.764508
25.1067,2.764965
25.2375,2.7649
25.3682,2.765197
25.499,2.765595
25.6298,2.766014
25.7605,2.76577
25.8913,2.765769
26.0221,2.766544
26.1528,2.766561
26.2836,2.766755
26.4143,2.766895
26.5451,2.76717
26.6759,2.767291
26.8066,2.767459
26.9374,2.766779
27.0682,2.767198
27.1989,2.767243
27.3297,2.766771
27.4605,2.767072
27.5912,2.767351
27.722,2.767027
27.8528,2.76663
27.9835,2.76685
28.1143,2.766726
28.245,2.766721
28.3758,2.766202
28.5066,2.765616
28.6373,2.764677
28.7681,2.765142
28.8989,2.764749
29.0296,2.764135
29.1604,2.764311
29.2912,2.764134
29.4219,2.764218
29.5527,2.764129
29.6834,2.763403
29.8142,2.762694
29.945,2.762435
30.0757,2.762546
30.2065,2.762823
30.3373,2.762671
30.468,2.761338
30.5988,2.761753
30.7296,2.762144
30.8603,2.762033
30.9911,2.761953
31.1219,2.761873
31.2526,2.761601
31.3834,2.761105
31.5141,2.76142
31.6449,2.76144
31.7757,2.761339
31.9064,2.760832
32.0372,2.759988
32.168,2.760194
32.2987,2.759874
32.4295,2.759462
32.5603,2.760117
32.691,2.759773
32.8218,2.759788
32.9526,2.759397
33.0833,2.759627
33.2141,2.759509
33.3448,2.758564
33.4756,2.759079
33.6064,2.758868
33.7371,2.758483
33.8679,2.758573
33.9987,2.758024
34.1294,2.757156
34.2602,2.757129
34.391,2.757205
34.5217,2.756892
34.6525,2.757136
34.7832,2.756513
34.914,2.756544
35.0448,2.756664
35.1755,2.755693
35.3063,2.755024
35.4371,2.755808
35.5678,2.755029
35.6986,2.755293
35.8294,2.755805
35.9601,2.755378
36.0909,2.755099
36.2217,2.754444
36.3524,2.753931
36.4832,2.753663
36.6139,2.754178
36.7447,2.753737
36.8755,2.753559
37.0062,2.752832
37.137,2.752569
37.2678,2.752286
37.3985,2.752282
37.5293,2.752501
37.6601,2.752095
37.7908,2.752261
37.9216,2.752315
38.0523,2.751522
38.1831,2.751394
38.3139,2.751415
38.4446,2.750913
38.5754,2.750701
38.7062,2.750641
38.8369,2.750189
38.9677,2.75057
39.0985,2.750591
39.2292,2.749489
39.36,2.749727
39.4908,2.749125
39.6215,2.749187
39.7523,2.748024
39.883,2.748197
40.0138,2.74746
40.1446,2.746921
40.2753,2.747391
40.4061,2.747635
40.5369,2.746751
40.6676,2.746165
40.7984,2.746054
40.9292,2.746189
41.0599,2.746434
41.1907,2.746522
41.3215,2.74643
41.4522,2.746643
41.583,2.746691
41.7137,2.746625
41.8445,2.746078
41.9753,2.746192
42.106,2.745977
42.2368,2.745751
42.3676,2.745582
42.4983,2.745026
42.6291,2.745425
42.7599,2.744978
42.8906,2.744124
43.0214,2.744196
43.1521,2.744002
43.2829,2.743772
43.4137,2.743127
43.5444,2.74367
43.6752,2.743234
43.806,2.743235
43.9367,2.743522
44.0675,2.743486
44.1983,2.743066
44.329,2.742951
44.4598,2.742347
44.5906,2.742532
44.7213,2.742102
44.8521,2.742221
44.9828,2.741824
45.1136,2.741583
45.2444,2.741258
45.3751,2.74145
45.5059,2.741621
45.6367,2.74099
45.7674,2.741344
45.8982,2.740879
46.029,2.74108
46.1597,2.740377
46.2905,2.740681
46.4213,2.740385
46.552,2.739954
46.6828,2.739616
46.8135,2.739236
46.9443,2.739182
47.0751,2.739614
47.2058,2.73967
47.3366,2.739526
47.4674,2.738903
47.5981,2.739298
47.7289,2.738936
47.8597,2.739033
47.9904,2.738641
48.1212,2.739154
48.2519,2.738434
48.3827,2.738366
48.5135,2.738345
48.6442,2.737942
48.775,2.738319
48.9058,2.738251
49.0365,2.73778
49.1673,2.737574
49.2981,2.737558
49.4288,2.737752
49.5596,2.737717
49.6904,2.737811
49.8211,2.737822
49.9519,2.737193
50.0826,2.73772
50.2134,2.737972
50.3442,2.737453
50.4749,2.73712
50.6057,2.737202
50.7365,2.736996
50.8672,2.73651
50.998,2.736638
51.1288,2.736733
51.2595,2.736694
51.3903,2.736604
51.5211,2.736465
51.6518,2.736611
51.7826,2.736469
51.9133,2.736278
52.0441,2.736638
52.1749,2.736453
52.3056,2.736324
52.4364,2.736285
52.5672,2.736414
52.6979,2.735673
52.8287,2.735951
52.9595,2.735723
53.0902,2.735431
53.221,2.735182
53.3517,2.735208
53.4825,2.735868
53.6133,2.735497
53.744,2.735301
53.8748,2.73528
54.0056,2.7353
54.1363,2.735205
54.2671,2.734897
54.3979,2.73509
54.5286,2.734532
54.6594,2.734877
54.7902,2.734453
54.9209,2.734302
55.0517,2.734493
55.1824,2.734222
55.3132,2.733687
55.444,2.733192
55.5747,2.733526
55.7055,2.732981
55.8363,2.733204
55.967,2.732949
56.0978,2.732636
56.2286,2.732118
56.3593,2.732154
56.4901,2.731981
56.6209,2.732053
56.7516,2.731918
56.8824,2.731902
57.0131,2.73158
57.1439,2.731588
57.2747,2.73134
57.4054,2.730923
57.5362,2.731259
57.667,2.730802
57.7977,2.731224
57.9285,2.730693
58.0593,2.730224
58.19,2.730319
58.3208,2.730212
58.4515,2.730023
58.5823,2.730318
58.7131,2.730201
58.8438,2.730038
58.9746,2.729385
59.1054,2.729532
59.2361,2.729706
59.3669,2.729282
59.4977,2.728982
59.6284,2.728612
59.7592,2.728858
59.89,2.728011
60.0207,2.728047
60.1515,2.728034
60.2822,2.728449
60.413,2.727698
60.5438,2.72742
60.6745,2.726965
60.8053,2.726863
60.9361,2.726728
61.0668,2.726429
61.1976,2.726031
61.3284,2.726007
61.4591,2.725396
61.5899,2.725259
61.7206,2.72536
61.8514,2.725172
61.9822,2.724841
62.1129,2.724848
62.2437,2.724571
62.3745,2.724439
62.5052,2.724061
62.636,2.723995
62.7668,2.723658
62.8975,2.722793
63.0283,2.723074
63.1591,2.722787
63.2898,2.723036
63.4206,2.722769
63.5513,2.722295
63.6821,2.72264
63.8129,2.722773
63.9436,2.722107
64.0744,2.717968
64.2052,2.717973
64.3359,2.71774
64.4667,2.717665
64.5975,2.717277
64.7282,2.717541
64.859,2.717291
64.9898,2.717898
65.1205,2.717161
65.2513,2.716726
65.382,2.716888
65.5128,2.716945
65.6436,2.716834
65.7743,2.716916
65.9051,2.716534
66.0359,2.716512
66.1666,2.716212
66.2974,2.716016
66.4282,2.715509
66.5589,2.715613
66.6897,2.715303
66.8204,2.715588
66.9512,2.716555
67.082,2.716477
67.2127,2.716528
67.3435,2.71564
67.4743,2.7157
67.605,2.715299
67.7358,2.715004
67.8666,2.714604
67.9973,2.714185
68.1281,2.714427
68.2589,2.714037
68.3896,2.713804
68.5204,2.713503
68.6511,2.713241
68.7819,2.713359
68.9127,2.713247
69.0434,2.712649
69.1742,2.712748
69.305,2.71254
69.4357,2.712786
69.5665,2.711741
69.6973,2.706189
69.828,2.706127
69.9588,2.70591
70.0896,2.705853
70.2203,2.704779
70.3511,2.704242
70.4818,2.704777
70.6126,2.704554
70.7434,2.704437
70.8741,2.703282
71.0049,2.703148
71.1357,2.704603
71.2664,2.704733
71.3972,2.704439
71.528,2.704588
71.6587,2.704792
71.7895,2.70353
71.9202,2.703644
72.051,2.703351
72.1818,2.70273
72.3125,2.702444
72.4433,2.702666
72.5741,2.702709
72.7048,2.702941
72.8356,2.702823
72.9664,2.702308
73.0971,2.701861
73.2279,2.701379
73.3587,2.70134
73.4894,2.700667
73.6202,2.700363
73.7509,2.700049
73.8817,2.699561
74.0125,2.699631
74.1432,2.698897
74.274,2.698139
74.4048,2.698468
74.5355,2.69947
74.6663,2.700341
74.7971,2.700041
74.9278,2.699658
75.0586,2.699681
75.1894,2.699389
75.3201,2.699484
75.4509,2.698683
75.5816,2.698632
75.7124,2.699076
75.8432,2.698997
75.9739,2.699526
76.1047,2.699684
76.2355,2.698535
76.3662,2.698825
76.497,2.698512
76.6278,2.69817
76.7585,2.699004
76.8893,2.69936
77.02,2.699181
77.1508,2.698837
77.2816,2.697884
77.4123,2.697811
77.5431,2.697158
77.6739,2.69722
77.8046,2.696922
77.9354,2.696294
78.0662,2.696026
78.1969,2.69594
78.3277,2.695755
78.4585,2.695483
78.5892,2.695435
78.72,2.694383
78.8507,2.694442
78.9815,2.693893
79.1123,2.693157
79.243,2.693133
79.3738,2.692965
79.5046,2.692298
79.6353,2.691943
79.7661,2.691996
79.8969,2.692225
80.0276,2.692286
80.1584,2.69104
80.2892,2.690216
80.4199,2.689107
80.5507,2.68943
80.6814,2.689493
80.8122,2.689956
80.943,2.689516
81.0737,2.689645
81.2045,2.68873
81.3353,2.688031
81.466,2.688004
81.5968,2.687833
81.7276,2.687404
81.8583,2.686351
81.9891,2.685648
82.1198,2.686353
82.2506,2.685893
82.3814,2.685458
82.5121,2.685608
82.6429,2.684968
82.7737,2.684642
82.9044,2.684056
83.0352,2.684111
83.166,2.683462
83.2967,2.683256
83.4275,2.683601
83.5583,2.682896
83.689,2.682715
83.8198,2.683033
83.9505,2.675572
84.0813,2.678723
84.2121,2.677666
84.3428,2.676823
84.4736,2.677604
84.6044,2.677512
84.7351,2.676745
84.8659,2.675783
84.9967,2.674376
85.1274,2.674345
85.2582,2.674203
85.3889,2.67411
85.5197,2.674215
85.6505,2.674319
85.7812,2.674019
85.912,2.673265
86.0428,2.672997
86.1735,2.673705
86.3043,2.673243
86.4351,2.672949
86.5658,2.674046
86.6966,2.674881
86.8274,2.673562
86.9581,2.674902
87.0889,2.675512
87.2196,2.675589
87.3504,2.675955
87.4812,2.675309
87.6119,2.674654
87.7427,2.674638
87.8735,2.673483
88.0042,2.673078
88.135,2.673748
88.2658,2.673272
88.3965,2.673887
88.5273,2.673741
88.6581,2.673599
88.7888,2.672861
88.9196,2.672386
89.0503,2.672016
89.1811,2.672124
89.3119,2.672234
89.4426,2.671789
89.5734,2.671305
89.7042,2.67061
89.8349,2.67016
89.9657,2.669481
90.0965,2.670009
90.2272,2.670386
90.358,2.670439
90.4887,2.669377
90.6195,2.670185
90.7503,2.66889
90.881,2.669839
91.0118,2.669846
91.1426,2.668882
91.2733,2.669809
91.4041,2.669173
91.5349,2.668555
91.6656,2.66803
91.7964,2.667822
91.9272,2.667538
92.0579,2.667447
92.1887,2.667028
92.3194,2.666836
92.4502,2.66635
92.581,2.66575
92.7117,2.666066
92.8425,2.665577
92.9733,2.665351
93.104,2.664581
93.2348,2.664606
93.3656,2.664361
93.4963,2.663866
93.6271,2.66362
93.7579,2.663844
93.8886,2.662997
94.0194,2.662426
94.1501,2.66229
94.2809,2.661719
94.4117,2.661448
94.5424,2.66092
94.6732,2.660079
94.804,2.66009
94.9347,2.65982
95.0655,2.659396
95.1963,2.659126
95.327,2.658927
95.4578,2.658828
95.5885,2.658437
95.7193,2.65902
95.8501,2.657934
95.9808,2.657077
96.1116,2.657621
96.2424,2.657495
96.3731,2.65718
96.5039,2.656906
96.6347,2.656415
96.7654,2.655582
96.8962,2.655442
97.027,2.654699
97.1577,2.653789
97.2885,2.653433
97.4192,2.653022
97.55,2.652211
97.6808,2.651683
97.8115,2.65146
97.9423,2.650831
98.0731,2.650665
98.2038,2.649651
98.3346,2.649276
98.4654,2.648795
98.5961,2.648539
98.7269,2.647866
98.8577,2.647645
98.9884,2.647321
99.1192,2.646715
99.2499,2.646505
99.3807,2.645891
99.5115,2.645358
99.6422,2.645811
99.773,2.645139
99.9038,2.644909
100.035,2.643922
100.165,2.643502
100.296,2.643665
100.427,2.643145
100.558,2.643077
100.688,2.643005
100.819,2.642705
100.95,2.642187
101.081,2.641819
101.211,2.641884
101.342,2.641249
101.473,2.641096
101.604,2.640818
101.734,2.640574
101.865,2.640481
101.996,2.639796
102.127,2.638304
102.258,2.639269
102.388,2.638011
102.519,2.637823
102.65,2.637685
102.781,2.637075
102.911,2.636951
103.042,2.63609
103.173,2.635898
103.304,2.63549
103.434,2.63515
103.565,2.634828
103.696,2.634409
103.827,2.633697
103.957,2.632788
104.088,2.633149
104.219,2.633616
104.35,2.632809
104.481,2.632323
104.611,2.632209
104.742,2.631687
104.873,2.631517
105.004,2.631498
105.134,2.630838
105.265,2.630327
105.396,2.630418
105.527,2.63005
105.657,2.629789
105.788,2.628957
105.919,2.628961
106.05,2.628502
106.18,2.628401
106.311,2.628237
106.442,2.627697
106.573,2.627428
106.703,2.626082
106.834,2.626051
106.965,2.625872
107.096,2.625063
107.227,2.624282
107.357,2.624203
107.488,2.623364
107.619,2.623133
107.75,2.62243
107.88,2.621814
108.011,2.620919
108.142,2.62112
108.273,2.619736
108.403,2.620307
108.534,2.620101
108.665,2.619197
108.796,2.619134
108.926,2.618889
109.057,2.618153
109.188,2.617696
109.319,2.617295
109.45,2.6164
109.58,2.615953
109.711,2.615754
109.842,2.615792
109.973,2.615474
110.103,2.614841
110.234,2.614064
110.365,2.613862
110.496,2.613525
110.626,2.61339
110.757,2.613091
110.888,2.61276
111.019,2.612079
111.149,2.611449
111.28,2.610738
111.411,2.61065
111.542,2.610425
111.673,2.610603
111.803,2.610267
111.934,2.609408
112.065,2.608449
112.196,2.608314
112.326,2.608053
112.457,2.608706
112.588,2.6086
112.719,2.607807
112.849,2.60646
112.98,2.606813
113.111,2.607147
113.242,2.606657
113.372,2.606031
113.503,2.605758
113.634,2.605319
113.765,2.604616
113.896,2.604267
114.026,2.603585
114.157,2.603394
114.288,2.603193
114.419,2.602651
114.549,2.603338
114.68,2.601682
114.811,2.602169
114.942,2.602266
115.072,2.602286
115.203,2.601552
115.334,2.600599
115.465,2.600232
115.595,2.599107
115.726,2.598201
115.857,2.599315
115.988,2.598303
116.119,2.597401
116.249,2.596966
116.38,2.597653
116.511,2.597229
116.642,2.59662
116.772,2.596166
116.903,2.595867
117.034,2.595444
117.165,2.594883
117.295,2.595043
117.426,2.594929
117.557,2.592762
117.688,2.593179
117.818,2.593142
117.949,2.592921
118.08,2.592981
118.211,2.591921
118.342,2.591563
118.472,2.59166
118.603,2.591143
118.734,2.590587
118.865,2.590106
118.995,2.589729
119.126,2.589346
119.257,2.589092
119.388,2.588532
119.518,2.588663
119.649,2.587411
119.78,2.587043
119.911,2.586347
120.041,2.586374
120.172,2.585829
120.303,2.585178
120.434,2.58497
120.564,2.583874
120.695,2.583947
120.826,2.583066
120.957,2.581907
121.088,2.582697
121.218,2.581788
121.349,2.581088
121.48,2.581643
121.611,2.580243
121.741,2.580187
121.872,2.580758
122.003,2.581195
122.134,2.580465
122.264,2.57943
122.395,2.578881
122.526,2.578884
122.657,2.578151
122.787,2.577491
122.918,2.576968
123.049,2.576643
123.18,2.575906
123.311,2.575609
123.441,2.574864
123.572,2.574919
123.703,2.574621
123.834,2.574321
123.964,2.573414
124.095,2.572746
124.226,2.57234
124.357,2.572286
124.487,2.572257
124.618,2.570865
124.749,2.570679
124.88,2.570036
125.01,2.569371
125.141,2.569341
125.272,2.568697
125.403,2.568576
125.534,2.567939
125.664,2.567419
125.795,2.569022
125.926,2.568528
126.057,2.567626
126.187,2.566937
126.318,2.566485
126.449,2.566738
126.58,2.566617
126.71,2.566111
126.841,2.565546
126.972,2.564528
127.103,2.564063
127.233,2.563444
127.364,2.563325
127.495,2.562433
127.626,2.562052
127.757,2.562804
127.887,2.562239
128.018,2.560916
128.149,2.561561
128.28,2.561114
128.41,2.560445
128.541,2.553826
128.672,2.553852
128.803,2.553285
128.933,2.552833
129.064,2.552273
129.195,2.551694
129.326,2.551096
129.456,2.550652
129.587,2.550048
129.718,2.549815
129.849,2.548833
129.98,2.549617
130.11,2.549583
130.241,2.549275
130.372,2.547857
130.503,2.547129
130.633,2.546034
130.764,2.545839
130.895,2.545292
131.026,2.544847
131.156,2.543968
131.287,2.544434
131.418,2.544665
131.549,2.54463
131.679,2.544287
131.81,2.538032
131.941,2.537849
132.072,2.537885
132.202,2.537407
132.333,2.536214
132.464,2.536044
132.595,2.535525
132.726,2.53642
132.856,2.536631
132.987,2.536609
133.118,2.532743
133.249,2.536922
133.379,2.536348
133.51,2.536385
133.641,2.53636
133.772,2.536258
133.902,2.536019
134.033,2.535661
134.164,2.535393
134.295,2.534881
134.425,2.534784
134.556,2.534289
134.687,2.533923
134.818,2.533327
134.949,2.532933
135.079,2.5332
135.21,2.532201
135.341,2.531676
135.472,2.530857
135.602,2.530063
135.733,2.53011
135.864,2.530063
135.995,2.529432
136.125,2.52866
136.256,2.527841
136.387,2.527619
136.518,2.526839
136.648,2.526748
136.779,2.526021
136.91,2.525773
137.041,2.525072
137.172,2.524896
137.302,2.524643
137.433,2.523504
137.564,2.523746
137.695,2.522941
137.825,2.522049
137.956,2.521513
138.087,2.521069
138.218,2.520532
138.348,2.520007
138.479,2.519663
138.61,2.518901
138.741,2.518642
138.871,2.518563
139.002,2.517832
139.133,2.517324
139.264,2.51697
139.395,2.516742
139.525,2.516304
139.656,2.515675
139.787,2.514778
139.918,2.514266
140.048,2.513796
140.179,2.513319
140.31,2.512707
140.441,2.512549
140.571,2.511753
140.702,2.510193
140.833,2.510016
140.964,2.509065
141.094,2.508465
141.225,2.507518
141.356,2.507467
141.487,2.506256
141.618,2.505953
141.748,2.505494
141.879,2.504608
142.01,2.503471
142.141,2.502976
142.271,2.502562
142.402,2.502173
142.533,2.501256
142.664,2.500839
142.794,2.500086
142.925,2.499232
143.056,2.498633
143.187,2.497914
143.317,2.497255
143.448,2.495526
143.579,2.494508
143.71,2.494031
143.84,2.494027
143.971,2.493799
144.102,2.494209
144.233,2.493011
144.364,2.492372
144.494,2.49035
144.625,2.489955
144.756,2.489007
144.887,2.487818
145.017,2.487643
145.148,2.486989
145.279,2.485729
145.41,2.48507
145.54,2.485096
145.671,2.484607
145.802,2.483485
145.933,2.483056
146.063,2.481727
146.194,2.481117
146.325,2.48047
146.456,2.479923
146.587,2.479279
146.717,2.478251
146.848,2.477341
146.979,2.476927
147.11,2.475982
147.24,2.47561
147.371,2.474745
147.502,2.473984
147.633,2.472113
147.763,2.471286
147.894,2.470612
148.025,2.469739
148.156,2.468922
148.286,2.468025
148.417,2.467061
148.548,2.466323
148.679,2.464643
148.81,2.464426
148.94,2.463873
149.071,2.463098
149.202,2.461311
149.333,2.461139
149.463,2.46048
149.594,2.459659
149.725,2.458953
149.856,2.457884
149.986,2.457362
150.117,2.455964
150.248,2.455086
150.379,2.454283
150.509,2.453256
150.64,2.452134
150.771,2.451302
150.902,2.45067
151.033,2.449502
151.163,2.448717
151.294,2.447615
151.425,2.446598
151.556,2.446017
151.686,2.445153
151.817,2.444554
151.948,2.444128
152.079,2.44298
152.209,2.442283
152.34,2.441676
152.471,2.441026
152.602,2.440556
152.732,2.439453
152.863,2.439491
152.994,2.439006
153.125,2.438354
153.256,2.437259
153.386,2.436502
153.517,2.435531
153.648,2.434643
153.779,2.434273
153.909,2.432952
154.04,2.432297
154.171,2.431099
154.302,2.429671
154.432,2.427964
154.563,2.426857
154.694,2.425746
154.825,2.424267
154.955,2.422869
155.086,2.421721
155.217,2.421069
155.348,2.419386
155.479,2.418482
155.609,2.417259
155.74,2.416287
155.871,2.415422
156.002,2.414625
156.132,2.413378
156.263,2.412574
156.394,2.411592
156.525,2.410547
156.655,2.409524
156.786,2.408617
156.917,2.407744
157.048,2.406569
157.178,2.405603
157.309,2.404178
157.44,2.402965
157.571,2.401362
157.701,2.400028
157.832,2.39924
157.963,2.398161
158.094,2.397701
158.225,2.397137
158.355,2.396456
158.486,2.395275
158.617,2.393916
158.748,2.393368
158.878,2.39305
159.009,2.391674
159.14,2.390894
159.271,2.389794
159.401,2.38869
159.532,2.388187
159.663,2.387253
159.794,2.385566
159.924,2.384835
160.055,2.384164
160.186,2.383346
160.317,2.382597
160.448,2.381337
160.578,2.378479
160.709,2.377964
160.84,2.377878
160.971,2.376994
161.101,2.376076
161.232,2.37516
161.363,2.373745
161.494,2.371658
161.624,2.370914
161.755,2.369218
161.886,2.367019
162.017,2.364755
162.147,2.362513
162.278,2.358067
162.409,2.352412
162.54,2.348572
162.671,2.344763
162.801,2.344074
162.932,2.342129
163.063,2.339863
163.194,2.337897
163.324,2.335464
163.455,2.333921
163.586,2.331552
163.717,2.330044
163.847,2.327955
163.978,2.326758
164.109,2.325586
164.24,2.323437
164.37,2.321275
164.501,2.319926
164.632,2.319272
164.763,2.317489
164.894,2.316629
165.024,2.31456
165.155,2.312975
165.286,2.310989
165.417,2.30891
165.547,2.307918
165.678,2.306048
165.809,2.304565
165.94,2.302265
166.07,2.300635
166.201,2.299437
166.332,2.297663
166.463,2.296256
166.593,2.29479
166.724,2.293162
166.855,2.29121
166.986,2.289759
167.117,2.287574
167.247,2.2865
167.378,2.28437
167.509,2.283415
167.64,2.282437
167.77,2.281466
167.901,2.280297
168.032,2.279411
168.163,2.27926
168.293,2.278694
168.424,2.277649
168.555,2.276761
168.686,2.276534
168.816,2.276248
168.947,2.275588
169.078,2.275263
169.209,2.274728
169.339,2.273988
169.47,2.273885
169.601,2.272986
169.732,2.273036
169.863,2.272744
169.993,2.271741
170.124,2.271216
170.255,2.270789
170.386,2.270627
170.516,2.270492
170.647,2.269941
170.778,2.269892
170.909,2.268825
171.039,2.268396
171.17,2.268179
171.301,2.267906
171.432,2.267662
171.562,2.26698
171.693,2.26677
171.824,2.26622
171.955,2.266255
172.086,2.265848
172.216,2.265678
172.347,2.265862
172.478,2.264434
172.609,2.264112
172.739,2.263763
172.87,2.263778
173.001,2.263601
173.132,2.262866
173.262,2.262648
173.393,2.26233
173.524,2.261842
173.655,2.261204
173.785,2.261125
173.916,2.260793
174.047,2.259951
174.178,2.25941
174.309,2.259083
174.439,2.259596
174.57,2.259354
174.701,2.258675
174.832,2.258921
174.962,2.258286
175.093,2.258837
175.224,2.25803
175.355,2.257581
175.485,2.257907
175.616,2.257513
175.747,2.25687
175.878,2.256505
176.008,2.256635
176.139,2.255831
176.27,2.256011
176.401,2.255418
176.532,2.254785
176.662,2.254582
176.793,2.254837
176.924,2.254006
177.055,2.254001
177.185,2.253455
177.316,2.252932
177.447,2.252938
177.578,2.252887
177.708,2.252153
177.839,2.252544
177.97,2.252534
178.101,2.251595
178.231,2.250392
178.362,2.250243
178.493,2.250355
178.624,2.250307
178.755,2.250299
178.885,2.250397
179.016,2.250262
179.147,2.250083
179.278,2.249055
179.408,2.248769
179.539,2.24876
179.67,2.247901
179.801,2.247293
179.931,2.247268
180.062,2.24649
180.193,2.246479
180.324,2.245925
180.454,2.24583
180.585,2.245384
180.716,2.24494
180.847,2.244424
180.977,2.244459
181.108,2.243804
181.239,2.244116
181.37,2.243978
181.501,2.244225
181.631,2.243881
181.762,2.243552
181.893,2.242459
182.024,2.242743
182.154,2.242538
182.285,2.242347
182.416,2.242001
182.547,2.24172
182.677,2.241096
182.808,2.240166
182.939,2.240032
183.07,2.239714
183.2,2.239112
183.331,2.239174
183.462,2.238437
183.593,2.238004
183.724,2.237513
183.854,2.2371
183.985,2.236558
184.116,2.235822
184.247,2.236038
184.377,2.235401
184.508,2.235049
184.639,2.234898
184.77,2.23434
184.9,2.233987
185.031,2.23392
185.162,2.233393
185.293,2.232813
185.423,2.232758
185.554,2.231627
185.685,2.23091
185.816,2.230896
185.947,2.230408
186.077,2.229472
186.208,2.228789
186.339,2.228449
186.47,2.228304
186.6,2.227918
186.731,2.227537
186.862,2.226884
186.993,2.226313
187.123,2.22558
187.254,2.225417
187.385,2.22456
187.516,2.224474
187.646,2.223976
187.777,2.223451
187.908,2.222373
188.039,2.222195
188.17,2.221747
188.3,2.221014
188.431,2.220784
188.562,2.220667
188.693,2.2199
188.823,2.219656
188.954,2.219243
189.085,2.218408
189.216,2.217474
189.346,2.217553
189.477,2.216731
189.608,2.216542
189.739,2.216064
189.869,2.215713
190,2.214906
190.131,2.214512
190.262,2.214493
190.393,2.21376
190.523,2.213246
190.654,2.211946
190.785,2.211382
190.916,2.210619
191.046,2.210246
191.177,2.209734
191.308,2.208889
191.439,2.208224
191.569,2.207601
191.7,2.207275
191.831,2.20695
191.962,2.206558
192.092,2.205696
192.223,2.205007
192.354,2.20388
192.485,2.203933
192.616,2.203012
192.746,2.202937
192.877,2.202246
193.008,2.201733
193.139,2.201712
193.269,2.200694
193.4,2.200403
193.531,2.199227
193.662,2.199096
193.699,2.19846