File: smoothed_normalized_data/12.5mA4msec-0.2mA16msec.csv
Capacity_mAh,Voltage_V
0.0,1.0
0.118222,0.992212
0.236445,0.984923
0.354667,0.978116
0.47289,0.971775
0.591112,0.965884
0.709334,0.960428
0.827557,0.955388
0.945779,0.950751
1.064,0.946499
1.18222,0.942617
1.30045,0.939087
1.41867,0.935895
1.53689,0.933024
1.65511,0.930457
1.77334,0.928179
1.89156,0.926174
2.00978,0.924425
2.128,0.922916
2.24623,0.921631
2.36445,0.920555
2.48267,0.91967
2.60089,0.91896
2.71912,0.918411
2.83734,0.918004
2.95556,0.918111
3.07378,0.918012
3.192,0.917807
3.31023,0.917571
3.42845,0.917322
3.54667,0.917076
3.66489,0.91683
3.78312,0.916584
3.90134,0.916345
4.01956,0.916129
4.13778,0.915937
4.25601,0.915752
4.37423,0.91558
4.49245,0.915425
4.61067,0.915274
4.7289,0.915125
4.84712,0.914976
4.96534,0.914824
5.08356,0.914674
5.20179,0.914522
5.32001,0.914366
5.43823,0.914208
5.55645,0.914049
5.67468,0.91389
5.7929,0.91374
5.91112,0.913592
6.02934,0.913447
6.14756,0.91331
6.26579,0.913181
6.38401,0.913054
6.50223,0.912934
6.62045,0.912817
6.73868,0.912703
6.8569,0.91259
6.97512,0.912481
7.09334,0.912374
7.21157,0.912271
7.32979,0.912171
7.44801,0.912075
7.56623,0.911977
7.68446,0.911883
7.80268,0.911791
7.9209,0.911696
8.03912,0.911606
8.15735,0.911517
8.27557,0.911429
8.39379,0.911344
8.51201,0.911263
8.63024,0.911182
8.74846,0.911106
8.86668,0.911033
8.9849,0.910961
9.10313,0.910891
9.22135,0.910822
9.33957,0.910755
9.45779,0.910692
9.57601,0.910631
9.69424,0.91057
9.81246,0.91051
9.93068,0.910452
10.0489,0.910395
10.1671,0.910339
10.2853,0.910284
10.4036,0.910227
10.5218,0.91017
10.64,0.910117
10.7582,0.910062
10.8765,0.910006
10.9947,0.909953
11.1129,0.909904
11.2311,0.909856
11.3494,0.909809
11.4676,0.909763
11.5858,0.909719
11.704,0.909674
11.8222,0.90963
11.9405,0.909588
12.0587,0.909551
12.1769,0.909515
12.2951,0.909471
12.4134,0.909428
12.5316,0.909386
12.6498,0.909348
12.768,0.909312
12.8862,0.909275
13.0045,0.909236
13.1227,0.909198
13.2409,0.90916
13.3591,0.909125
13.4774,0.909089
13.5956,0.909052
13.7138,0.909018
13.832,0.908986
13.9502,0.908958
14.0685,0.908931
14.1867,0.908905
14.3049,0.90888
14.4231,0.908861
14.5414,0.90884
14.6596,0.908823
14.7778,0.908801
14.896,0.908784
15.0142,0.908767
15.1325,0.908749
15.2507,0.90873
15.3689,0.908715
15.4871,0.908699
15.6054,0.908684
15.7236,0.908673
15.8418,0.908659
15.96,0.908644
16.0782,0.90863
16.1965,0.908616
16.3147,0.908601
16.4329,0.908588
16.5511,0.908577
16.6694,0.908566
16.7876,0.908553
16.9058,0.908541
17.024,0.908534
17.1422,0.908523
17.2605,0.908514
17.3787,0.908503
17.4969,0.908496
17.6151,0.908491
17.7334,0.90848
17.8516,0.908469
17.9698,0.908458
18.088,0.908451
18.2063,0.908444
18.3245,0.908436
18.4427,0.908427
18.5609,0.908415
18.6791,0.908404
18.7974,0.908394
18.9156,0.908386
19.0338,0.908378
19.152,0.908373
19.2703,0.908371
19.3885,0.908369
19.5067,0.908368
19.6249,0.908367
19.7431,0.90837
19.8614,0.908377
19.9796,0.908384
20.0978,0.908388
20.216,0.908388
20.3343,0.908385
20.4525,0.908377
20.5707,0.908359
20.6889,0.90833
20.8071,0.908302
20.9254,0.908272
21.0436,0.908233
21.1618,0.908192
21.28,0.908153
21.3983,0.908115
21.5165,0.908076
21.6347,0.908042
21.7529,0.908007
21.8711,0.907975
21.9894,0.907945
22.1076,0.907916
22.2258,0.90789
22.344,0.907867
22.4623,0.907847
22.5805,0.907831
22.6987,0.907812
22.8169,0.907798
22.9351,0.907785
23.0534,0.907776
23.1716,0.907767
23.2898,0.90776
23.408,0.907756
23.5263,0.907756
23.6445,0.907753
23.7627,0.907749
23.8809,0.907746
23.9991,0.907739
24.1174,0.907737
24.2356,0.90774
24.3538,0.907746
24.472,0.907748
24.5903,0.907756
24.7085,0.907763
24.8267,0.907763
24.9449,0.907759
25.0631,0.907757
25.1814,0.907752
25.2996,0.907743
25.4178,0.907719
25.536,0.907689
25.6543,0.907648
25.7725,0.907593
25.8907,0.907529
26.0089,0.907458
26.1272,0.907376
26.2454,0.907283
26.3636,0.907195
26.4818,0.90711
26.6,0.907028
26.7183,0.906944
26.8365,0.906855
26.9547,0.906765
27.0729,0.906674
27.1912,0.906575
27.3094,0.906474
27.4276,0.90637
27.5458,0.906269
27.664,0.906168
27.7823,0.906065
27.9005,0.905968
28.0187,0.90587
28.1369,0.905771
28.2552,0.905669
28.3734,0.905575
28.4916,0.905484
28.6098,0.905396
28.728,0.905314
28.8463,0.905241
28.9645,0.905176
29.0827,0.905111
29.2009,0.905045
29.3192,0.904986
29.4374,0.904928
29.5556,0.90487
29.6738,0.90482
29.792,0.90478
29.9103,0.904783
30.0285,0.904763
30.1467,0.904744
30.2649,0.904698
30.3832,0.904568
30.5014,0.904425
30.6196,0.904277
30.7378,0.904123
30.856,0.903957
30.9743,0.903785
31.0925,0.903603
31.2107,0.903413
31.3289,0.903212
31.4472,0.903009
31.5654,0.902813
31.6836,0.902635
31.8018,0.902445
31.92,0.902202
32.0383,0.901939
32.1565,0.90167
32.2747,0.901393
32.3929,0.901106
32.5112,0.90078
32.6294,0.900432
32.7476,0.90006
32.8658,0.899737
32.9841,0.899461
33.1023,0.89918
33.2205,0.898932
33.3387,0.898673
33.4569,0.89845
33.5752,0.898282
33.6934,0.898043
33.8116,0.897828
33.9298,0.897622
34.0481,0.897368
34.1663,0.897238
34.2845,0.897068
34.4027,0.896899
34.5209,0.8967
34.6392,0.896555
34.7574,0.896327
34.8756,0.896041
34.9938,0.895762
35.1121,0.895583
35.2303,0.895365
35.3485,0.89514
35.4667,0.894937
35.5849,0.89483
35.7032,0.894554
35.8214,0.894311
35.9396,0.894079
36.0578,0.893982
36.1761,0.893845
36.2943,0.893613
36.4125,0.893408
36.5307,0.89326
36.6489,0.89325
36.7672,0.893286
36.8854,0.893309
37.0036,0.893315
37.1218,0.893239
37.2401,0.893027
37.3583,0.892776
37.4765,0.892477
37.5947,0.892187
37.7129,0.891968
37.8312,0.891687
37.9494,0.891424
38.0676,0.891182
38.1858,0.890977
38.3041,0.890814
38.4223,0.890685
38.5405,0.890587
38.6587,0.890504
38.7769,0.890472
38.8952,0.890447
39.0134,0.890448
39.1316,0.890466
39.2498,0.890464
39.3681,0.890488
39.4863,0.890576
39.6045,0.890604
39.7227,0.890678
39.8409,0.890691
39.9592,0.890685
40.0774,0.890785
40.1956,0.890747
40.3138,0.890679
40.4321,0.890544
40.5503,0.89053
40.6685,0.890566
40.7867,0.89054
40.905,0.890503
41.0232,0.890571
41.1414,0.890692
41.2596,0.890772
41.3778,0.890887
41.4961,0.891107
41.6143,0.891326
41.7325,0.891476
41.8507,0.891602
41.969,0.891877
42.0872,0.892221
42.2054,0.892572
42.3236,0.892884
42.4418,0.893019
42.5601,0.893114
42.6783,0.893159
42.7965,0.893175
42.9147,0.893279
43.033,0.893418
43.1512,0.893554
43.2694,0.893725
43.3876,0.893846
43.5058,0.894
43.6241,0.894209
43.7423,0.894374
43.8605,0.894548
43.9787,0.894715
44.097,0.894911
44.2152,0.89515
44.3334,0.895377
44.4516,0.895591
44.5698,0.895792
44.6881,0.895988
44.8063,0.896172
44.9245,0.896348
45.0427,0.896474
45.161,0.896555
45.2792,0.896593
45.3974,0.896646
45.5156,0.896682
45.6338,0.896686
45.7521,0.896573
45.8703,0.896433
45.9885,0.896341
46.1067,0.896258
46.225,0.896164
46.3432,0.896075
46.4614,0.896019
46.5796,0.895993
46.6978,0.89597
46.8161,0.895945
46.9343,0.895922
47.0525,0.895904
47.1707,0.895881
47.289,0.895867
47.4072,0.895854
47.5254,0.89584
47.6436,0.895827
47.7619,0.895812
47.8801,0.895795
47.9983,0.895775
48.1165,0.895758
48.2347,0.895748
48.353,0.895755
48.4712,0.895764
48.5894,0.89577
48.7076,0.895765
48.8259,0.895742
48.9441,0.895708
49.0623,0.895662
49.1805,0.895614
49.2987,0.895569
49.417,0.895514
49.5352,0.89546
49.6534,0.8954
49.7716,0.895326
49.8899,0.89523
50.0081,0.895112
50.1263,0.89498
50.2445,0.894823
50.3627,0.894657
50.481,0.894482
50.5992,0.894301
50.7174,0.894106
50.8356,0.893894
50.9539,0.893675
51.0721,0.893457
51.1903,0.893251
51.3085,0.892996
51.4267,0.892731
51.545,0.892461
51.6632,0.89218
51.7814,0.891897
51.8996,0.891587
52.0179,0.891259
52.1361,0.890919
52.2543,0.890574
52.3725,0.890231
52.4907,0.8899
52.609,0.889574
52.7272,0.889247
52.8454,0.888926
52.9636,0.888611
53.0819,0.88831
53.2001,0.888019
53.3183,0.887736
53.4365,0.887448
53.5547,0.887165
53.673,0.886899
53.7912,0.886659
53.9094,0.886442
54.0276,0.88625
54.1459,0.886065
54.2641,0.885905
54.3823,0.885771
54.5005,0.885673
54.6188,0.885601
54.737,0.885565
54.8552,0.885568
54.9734,0.885594
55.0916,0.885641
55.2099,0.885709
55.3281,0.885779
55.4463,0.885866
55.5645,0.885978
55.6828,0.886125
55.801,0.886306
55.9192,0.886513
56.0374,0.886752
56.1556,0.887008
56.2739,0.887267
56.3921,0.887531
56.5103,0.887815
56.6285,0.888112
56.7468,0.888418
56.865,0.888695
56.9832,0.889006
57.1014,0.889328
57.2196,0.889653
57.3379,0.889973
57.4561,0.890285
57.5743,0.890592
57.6925,0.89091
57.8108,0.891233
57.929,0.891553
58.0472,0.891866
58.1654,0.892168
58.2836,0.892448
58.4019,0.892717
58.5201,0.892966
58.6383,0.893196
58.7565,0.893403
58.8748,0.893582
58.993,0.893736
59.1112,0.893883
59.2294,0.89403
59.3476,0.894176
59.4659,0.894314
59.5841,0.894436
59.7023,0.894538
59.8205,0.894628
59.9388,0.894712
60.057,0.89478
60.1752,0.894827
60.2934,0.894856
60.4116,0.894881
60.5299,0.894885
60.6481,0.894876
60.7663,0.894847
60.8845,0.894803
61.0028,0.89475
61.121,0.894688
61.2392,0.894616
61.3574,0.894533
61.4756,0.894435
61.5939,0.894323
61.7121,0.894203
61.8303,0.894069
61.9485,0.893937
62.0668,0.893808
62.185,0.893684
62.3032,0.893561
62.4214,0.893439
62.5397,0.893322
62.6579,0.893209
62.7761,0.893098
62.8943,0.892985
63.0125,0.892873
63.1308,0.892765
63.249,0.892664
63.3672,0.892567
63.4854,0.892469
63.6037,0.892367
63.7219,0.892263
63.8401,0.892156
63.9583,0.892047
64.0765,0.8921
64.1948,0.892153
64.313,0.892148
64.4312,0.892103
64.5494,0.892032
64.6677,0.891926
64.7859,0.891791
64.9041,0.891629
65.0223,0.891446
65.1405,0.891242
65.2588,0.89102
65.377,0.890779
65.4952,0.890489
65.6134,0.890096
65.7317,0.889705
65.8499,0.889327
65.9681,0.888965
66.0863,0.888615
66.2045,0.888282
66.3228,0.887959
66.441,0.887649
66.5592,0.88736
66.6774,0.887081
66.7957,0.88682
66.9139,0.886676
67.0321,0.886529
67.1503,0.886335
67.2685,0.886145
67.3868,0.885981
67.505,0.885811
67.6232,0.885643
67.7414,0.885489
67.8597,0.885355
67.9779,0.88524
68.0961,0.885137
68.2143,0.885054
68.3325,0.884994
68.4508,0.884952
68.569,0.884929
68.6872,0.884921
68.8054,0.884931
68.9237,0.884959
69.0419,0.885006
69.1601,0.885071
69.2783,0.885153
69.3966,0.88526
69.5148,0.885392
69.633,0.88555
69.7512,0.885658
69.8694,0.885608
69.9877,0.885549
70.1059,0.885498
70.2241,0.885425
70.3423,0.885335
70.4606,0.885225
70.5788,0.885107
70.697,0.884976
70.8152,0.884821
70.9334,0.884648
71.0517,0.884455
71.1699,0.884245
71.2881,0.88413
71.4063,0.884052
71.5246,0.883982
71.6428,0.883921
71.761,0.88387
71.8792,0.88383
71.9974,0.8838
72.1157,0.883782
72.2339,0.883767
72.3521,0.883763
72.4703,0.883772
72.5886,0.883741
72.7068,0.883629
72.825,0.883536
72.9432,0.883479
73.0614,0.883398
73.1797,0.883308
73.2979,0.883238
73.4161,0.883166
73.5343,0.883091
73.6526,0.883011
73.7708,0.882935
73.889,0.882859
74.0072,0.882785
74.1254,0.882705
74.2437,0.88262
74.3619,0.88254
74.4801,0.882458
74.5983,0.882378
74.7166,0.882296
74.8348,0.882208
74.953,0.882116
75.0712,0.882026
75.1894,0.881936
75.3077,0.881846
75.4259,0.881756
75.5441,0.881667
75.6623,0.881585
75.7806,0.881495
75.8988,0.88141
76.017,0.881328
76.1352,0.881266
76.2534,0.881224
76.3717,0.881221
76.4899,0.881223
76.6081,0.881155
76.7263,0.881061
76.8446,0.880966
76.9628,0.880876
77.081,0.880792
77.1992,0.880706
77.3175,0.880623
77.4357,0.88054
77.5539,0.880445
77.6721,0.880335
77.7903,0.880211
77.9086,0.880083
78.0268,0.879947
78.145,0.879806
78.2632,0.879665
78.3815,0.879527
78.4997,0.879407
78.6179,0.879308
78.7361,0.879222
78.8543,0.879143
78.9726,0.879058
79.0908,0.878965
79.209,0.878868
79.3272,0.878767
79.4455,0.878658
79.5637,0.878564
79.6819,0.878446
79.8001,0.87831
79.9183,0.878173
80.0366,0.878038
80.1548,0.877911
80.273,0.877702
80.3912,0.877463
80.5095,0.877216
80.6277,0.876956
80.7459,0.876696
80.8641,0.876456
80.9823,0.876237
81.1006,0.876059
81.2188,0.875848
81.337,0.875632
81.4552,0.875428
81.5735,0.875245
81.6917,0.875102
81.8099,0.874952
81.9281,0.874782
82.0463,0.874563
82.1646,0.874273
82.2828,0.874036
82.401,0.873844
82.5192,0.873667
82.6375,0.873505
82.7557,0.873363
82.8739,0.87324
82.9921,0.87315
83.1103,0.873112
83.2286,0.873062
83.3468,0.872976
83.465,0.872925
83.5832,0.872886
83.7015,0.87282
83.8197,0.87277
83.9379,0.872753
84.0561,0.872771
84.1744,0.872811
84.2926,0.872858
84.4108,0.872909
84.529,0.872962
84.6472,0.873026
84.7655,0.873095
84.8837,0.87317
85.0019,0.873245
85.1201,0.873328
85.2384,0.873402
85.3566,0.873456
85.4748,0.873521
85.593,0.873588
85.7112,0.873651
85.8295,0.87369
85.9477,0.87375
86.0659,0.873842
86.1841,0.873915
86.3024,0.874004
86.4206,0.874115
86.5388,0.874221
86.657,0.874317
86.7752,0.874384
86.8935,0.874439
87.0117,0.87452
87.1299,0.87461
87.2481,0.874695
87.3664,0.874764
87.4846,0.8748
87.6028,0.874847
87.721,0.874911
87.8392,0.874992
87.9575,0.875071
88.0757,0.875148
88.1939,0.87523
88.3121,0.875319
88.4304,0.875411
88.5486,0.875533
88.6668,0.875604
88.785,0.875589
88.9032,0.875502
89.0215,0.87543
89.1397,0.875339
89.2579,0.875216
89.3761,0.875109
89.4944,0.875027
89.6126,0.874933
89.7308,0.874823
89.849,0.874705
89.9672,0.874604
90.0855,0.874517
90.2037,0.874428
90.3219,0.874339
90.4401,0.87424
90.5584,0.874134
90.6766,0.874025
90.7948,0.873918
90.913,0.873807
91.0313,0.873689
91.1495,0.873566
91.2677,0.873439
91.3859,0.873304
91.5041,0.873153
91.6224,0.872986
91.7406,0.872816
91.8588,0.872669
91.977,0.872494
92.0953,0.872318
92.2135,0.872137
92.3317,0.872054
92.4499,0.87202
92.5681,0.87179
92.6864,0.871465
92.8046,0.871104
92.9228,0.870754
93.041,0.870391
93.1593,0.870034
93.2775,0.869687
93.3957,0.869354
93.5139,0.869033
93.6321,0.868717
93.7504,0.868414
93.8686,0.868119
93.9868,0.867841
94.105,0.867574
94.2233,0.867301
94.3415,0.867005
94.4597,0.866758
94.5779,0.866539
94.6961,0.866348
94.8144,0.866188
94.9326,0.866057
95.0508,0.865941
95.169,0.865853
95.2873,0.865799
95.4055,0.865787
95.5237,0.865806
95.6419,0.86585
95.7601,0.865883
95.8784,0.865912
95.9966,0.865937
96.1148,0.865955
96.233,0.865978
96.3513,0.86601
96.4695,0.866043
96.5877,0.866074
96.7059,0.866106
96.8241,0.866145
96.9424,0.866194
97.0606,0.866245
97.1788,0.866286
97.297,0.866312
97.4153,0.86631
97.5335,0.866266
97.6517,0.866224
97.7699,0.866165
97.8881,0.86609
98.0064,0.86595
98.1246,0.865594
98.2428,0.865216
98.361,0.864935
98.4793,0.864727
98.5975,0.864491
98.7157,0.864245
98.8339,0.86399
98.9522,0.863753
99.0704,0.863554
99.1886,0.863367
99.3068,0.863219
99.425,0.863083
99.5433,0.862969
99.6615,0.862864
99.7797,0.862759
99.8979,0.862686
100.016,0.86258
100.134,0.862424
100.253,0.862255
100.371,0.862082
100.489,0.861907
100.607,0.861739
100.725,0.861589
100.844,0.861418
100.962,0.861234
101.08,0.861056
101.198,0.86088
101.317,0.860703
101.435,0.860528
101.553,0.860356
101.671,0.86018
101.789,0.860032
101.908,0.859952
102.026,0.859882
102.144,0.859764
102.262,0.859601
102.381,0.859398
102.499,0.859202
102.617,0.85903
102.735,0.858829
102.853,0.858619
102.972,0.858436
103.09,0.85824
103.208,0.85806
103.326,0.857895
103.445,0.857723
103.563,0.857572
103.681,0.857407
103.799,0.857245
103.917,0.857115
104.036,0.857029
104.154,0.856955
104.272,0.856888
104.39,0.856831
104.509,0.856811
104.627,0.856822
104.745,0.856798
104.863,0.856753
104.981,0.856675
105.1,0.856584
105.218,0.856478
105.336,0.856337
105.454,0.85622
105.573,0.856033
105.691,0.855829
105.809,0.855672
105.927,0.855558
106.045,0.855469
106.164,0.855393
106.282,0.855339
106.4,0.855285
106.518,0.855243
106.637,0.855226
106.755,0.855208
106.873,0.855201
106.991,0.85522
107.109,0.85526
107.228,0.855319
107.346,0.85541
107.464,0.855523
107.582,0.855605
107.701,0.855607
107.819,0.855625
107.937,0.855671
108.055,0.85576
108.173,0.855877
108.292,0.855971
108.41,0.856069
108.528,0.856197
108.646,0.856303
108.765,0.856426
108.883,0.85655
109.001,0.856668
109.119,0.856776
109.238,0.856877
109.356,0.856965
109.474,0.857061
109.592,0.857149
109.71,0.857211
109.829,0.857225
109.947,0.857217
110.065,0.857189
110.183,0.857144
110.302,0.857074
110.42,0.856978
110.538,0.856903
110.656,0.85681
110.774,0.856721
110.893,0.856618
111.011,0.856516
111.129,0.856397
111.247,0.856298
111.366,0.856221
111.484,0.856116
111.602,0.855986
111.72,0.855831
111.838,0.855655
111.957,0.855465
112.075,0.855252
112.193,0.855025
112.311,0.854815
112.43,0.854635
112.548,0.854471
112.666,0.854249
112.784,0.854014
112.902,0.853754
113.021,0.853502
113.139,0.853262
113.257,0.853018
113.375,0.852773
113.494,0.85253
113.612,0.852266
113.73,0.851981
113.848,0.851686
113.966,0.851394
114.085,0.851098
114.203,0.850809
114.321,0.850534
114.439,0.850282
114.558,0.850038
114.676,0.849811
114.794,0.849597
114.912,0.849402
115.03,0.849221
115.149,0.849057
115.267,0.848902
115.385,0.848763
115.503,0.848643
115.622,0.848536
115.74,0.848441
115.858,0.848356
115.976,0.848282
116.094,0.848228
116.213,0.848186
116.331,0.848153
116.449,0.84813
116.567,0.848123
116.686,0.848124
116.804,0.848132
116.922,0.848129
117.04,0.848097
117.158,0.84806
117.277,0.848052
117.395,0.848039
117.513,0.848037
117.631,0.848052
117.75,0.848046
117.868,0.848002
117.986,0.847948
118.104,0.847896
118.222,0.847912
118.341,0.847948
118.459,0.847917
118.577,0.847914
118.695,0.847783
118.814,0.847564
118.932,0.847357
119.05,0.84713
119.168,0.846951
119.286,0.846694
119.405,0.846437
119.523,0.846206
119.641,0.845988
119.759,0.845783
119.878,0.845605
119.996,0.845449
120.114,0.845298
120.232,0.84516
120.35,0.845034
120.469,0.844919
120.587,0.844807
120.705,0.844701
120.823,0.844597
120.942,0.844502
121.06,0.844402
121.178,0.844303
121.296,0.844213
121.414,0.844134
121.533,0.84407
121.651,0.844021
121.769,0.843982
121.887,0.84395
122.006,0.843931
122.124,0.843928
122.242,0.843934
122.36,0.84395
122.478,0.843973
122.597,0.844015
122.715,0.844074
122.833,0.844145
122.951,0.844215
123.07,0.844288
123.188,0.844358
123.306,0.844408
123.424,0.844446
123.542,0.844535
123.661,0.84464
123.779,0.844742
123.897,0.844756
124.015,0.84462
124.134,0.844491
124.252,0.844335
124.37,0.844106
124.488,0.844034
124.606,0.843942
124.725,0.843844
124.843,0.843723
124.961,0.843569
125.079,0.843481
125.198,0.843395
125.316,0.843308
125.434,0.843222
125.552,0.843139
125.67,0.843048
125.789,0.842953
125.907,0.842852
126.025,0.842749
126.143,0.842636
126.262,0.842515
126.38,0.842392
126.498,0.842264
126.616,0.842129
126.734,0.841994
126.853,0.841875
126.971,0.841756
127.089,0.841633
127.207,0.841509
127.326,0.841379
127.444,0.841247
127.562,0.841116
127.68,0.840979
127.798,0.84084
127.917,0.840699
128.035,0.840556
128.153,0.840406
128.271,0.840254
128.39,0.8401
128.508,0.839944
128.626,0.839782
128.744,0.839616
128.862,0.839442
128.981,0.839265
129.099,0.839082
129.217,0.838893
129.335,0.838699
129.454,0.838499
129.572,0.838296
129.69,0.838093
129.808,0.837884
129.926,0.837675
130.045,0.837473
130.163,0.83728
130.281,0.837095
130.399,0.836908
130.518,0.836721
130.636,0.836536
130.754,0.836352
130.872,0.836164
130.99,0.835977
131.109,0.835788
131.227,0.835605
131.345,0.835419
131.463,0.835237
131.582,0.835053
131.7,0.834866
131.818,0.834679
131.936,0.834493
132.054,0.834304
132.173,0.834117
132.291,0.833931
132.409,0.83375
132.527,0.83357
132.646,0.833386
132.764,0.833205
132.882,0.833023
133,0.832845
133.118,0.832668
133.237,0.832489
133.355,0.832311
133.473,0.832137
133.591,0.831963
133.71,0.831786
133.828,0.83161
133.946,0.831436
134.064,0.831258
134.182,0.831077
134.301,0.830896
134.419,0.830714
134.537,0.830535
134.655,0.830359
134.774,0.830184
134.892,0.830007
135.01,0.829828
135.128,0.829648
135.246,0.829472
135.365,0.829295
135.483,0.829119
135.601,0.828941
135.719,0.82876
135.838,0.828582
135.956,0.828401
136.074,0.828225
136.192,0.828047
136.31,0.827868
136.429,0.827691
136.547,0.827513
136.665,0.827333
136.783,0.827159
136.902,0.826979
137.02,0.826798
137.138,0.826614
137.256,0.826428
137.374,0.826243
137.493,0.826056
137.611,0.82587
137.729,0.825684
137.847,0.825495
137.966,0.825306
138.084,0.825118
138.202,0.824931
138.32,0.824741
138.438,0.824549
138.557,0.824356
138.675,0.824165
138.793,0.82397
138.911,0.823775
139.03,0.823578
139.148,0.823383
139.266,0.823184
139.384,0.822982
139.502,0.822775
139.621,0.822569
139.739,0.822363
139.857,0.822157
139.975,0.821949
140.094,0.821744
140.212,0.821534
140.33,0.821322
140.448,0.821104
140.566,0.820884
140.685,0.820663
140.803,0.820444
140.921,0.820225
141.039,0.820004
141.158,0.819783
141.276,0.819558
141.394,0.819332
141.512,0.819111
141.63,0.818888
141.749,0.818666
141.867,0.818444
141.985,0.818222
142.103,0.818001
142.222,0.817782
142.34,0.817566
142.458,0.817352
142.576,0.817137
142.694,0.816917
142.813,0.816704
142.931,0.816488
143.049,0.816274
143.167,0.816054
143.286,0.815835
143.404,0.815615
143.522,0.815392
143.64,0.815173
143.758,0.814951
143.877,0.814725
143.995,0.814497
144.113,0.814266
144.231,0.814037
144.35,0.813804
144.468,0.813567
144.586,0.813331
144.704,0.813092
144.822,0.812845
144.941,0.812594
145.059,0.812341
145.177,0.812086
145.295,0.811829
145.414,0.811568
145.532,0.811305
145.65,0.811037
145.768,0.810764
145.886,0.810491
146.005,0.810211
146.123,0.809933
146.241,0.809655
146.359,0.809378
146.478,0.809098
146.596,0.808812
146.714,0.808525
146.832,0.808236
146.95,0.807948
147.069,0.80766
147.187,0.807371
147.305,0.807081
147.423,0.806792
147.542,0.806504
147.66,0.806217
147.778,0.80593
147.896,0.805642
148.014,0.805353
148.133,0.805061
148.251,0.804771
148.369,0.804479
148.487,0.804186
148.606,0.803892
148.724,0.803597
148.842,0.8033
148.96,0.803006
149.078,0.802711
149.197,0.802418
149.315,0.802122
149.433,0.801828
149.551,0.801526
149.67,0.801225
149.788,0.800919
149.906,0.800612
150.024,0.8003
150.142,0.799992
150.261,0.79968
150.379,0.799362
150.497,0.799045
150.615,0.798725
150.734,0.798406
150.852,0.798086
150.97,0.797767
151.088,0.79745
151.206,0.797129
151.325,0.796808
151.443,0.79649
151.561,0.796173
151.679,0.795859
151.798,0.795548
151.916,0.795232
152.034,0.794917
152.152,0.794603
152.27,0.794291
152.389,0.793983
152.507,0.793674
152.625,0.793358
152.743,0.793045
152.862,0.792737
152.98,0.792431
153.098,0.792126
153.216,0.791824
153.334,0.791525
153.453,0.791224
153.571,0.790928
153.689,0.790627
153.807,0.790331
153.926,0.790028
154.044,0.789725
154.162,0.78942
154.28,0.789115
154.398,0.78881
154.517,0.788505
154.635,0.788207
154.753,0.787906
154.871,0.787601
154.99,0.787291
155.108,0.786971
155.226,0.786648
155.344,0.786322
155.462,0.785994
155.581,0.785664
155.699,0.785336
155.817,0.785004
155.935,0.784668
156.054,0.784333
156.172,0.783997
156.29,0.78366
156.408,0.783323
156.526,0.782987
156.645,0.782651
156.763,0.78231
156.881,0.78197
156.999,0.781632
157.118,0.781297
157.236,0.780958
157.354,0.78062
157.472,0.78028
157.59,0.779939
157.709,0.779599
157.827,0.779254
157.945,0.778906
158.063,0.778559
158.182,0.778208
158.3,0.777862
158.418,0.777519
158.536,0.777177
158.654,0.776834
158.773,0.776491
158.891,0.776147
159.009,0.775796
159.127,0.775448
159.246,0.775094
159.364,0.774741
159.482,0.774385
159.6,0.774027
159.718,0.773672
159.837,0.773318
159.955,0.772966
160.073,0.77261
160.191,0.772255
160.31,0.771902
160.428,0.771544
160.546,0.771186
160.664,0.770826
160.782,0.770468
160.901,0.77011
161.019,0.76975
161.137,0.769392
161.255,0.769033
161.374,0.768667
161.492,0.768298
161.61,0.767929
161.728,0.767561
161.846,0.767192
161.965,0.766822
162.083,0.76645
162.201,0.766072
162.319,0.765692
162.438,0.765315
162.556,0.764933
162.674,0.764543
162.792,0.764148
162.91,0.763751
163.029,0.763344
163.147,0.762935
163.265,0.76252
163.383,0.762102
163.502,0.761683
163.62,0.76126
163.738,0.760841
163.856,0.760425
163.974,0.760003
164.093,0.759576
164.211,0.759142
164.329,0.758706
164.447,0.758271
164.566,0.757833
164.684,0.757399
164.802,0.756966
164.92,0.756536
165.038,0.756103
165.157,0.755672
165.275,0.75525
165.393,0.75483
165.511,0.754411
165.63,0.753991
165.748,0.753579
165.866,0.753175
165.984,0.752769
166.102,0.752368
166.221,0.751962
166.339,0.751556
166.457,0.751154
166.575,0.750748
166.694,0.750346
166.812,0.74995
166.93,0.749547
167.048,0.749147
167.166,0.748744
167.285,0.748342
167.403,0.747935
167.521,0.747527
167.639,0.747114
167.758,0.746699
167.876,0.746279
167.994,0.745854
168.112,0.745422
168.23,0.744988
168.349,0.744549
168.467,0.74411
168.585,0.743668
168.703,0.743218
168.822,0.742767
168.94,0.742314
169.058,0.741863
169.176,0.741409
169.294,0.740956
169.413,0.740501
169.531,0.740037
169.649,0.739571
169.767,0.739101
169.886,0.738631
170.004,0.738165
170.122,0.73769
170.24,0.737219
170.358,0.736741
170.477,0.736266
170.595,0.735779
170.713,0.735294
170.831,0.734803
170.95,0.734312
171.068,0.733814
171.186,0.733309
171.304,0.732804
171.422,0.732299
171.541,0.731792
171.659,0.731285
171.777,0.73077
171.895,0.730248
172.014,0.729733
172.132,0.729216
172.25,0.728695
172.368,0.728174
172.486,0.727648
172.605,0.727116
172.723,0.726581
172.841,0.726041
172.959,0.7255
173.078,0.724951
173.196,0.724412
173.314,0.723842
173.432,0.72325
173.55,0.722671
173.621,0.722331