File: smoothed_normalized_data/30.0mA5msec-0.2mA5msec.csv
Capacity_mAh,Voltage_V
0.0,1.0
0.0146805,0.999689
0.029361,0.999379
0.0440416,0.99907
0.0587221,0.998761
0.0734026,0.998453
0.0880831,0.998146
0.102764,0.997839
0.117444,0.997533
0.132125,0.997227
0.146805,0.996923
0.161486,0.996618
0.176166,0.996315
0.190847,0.996012
0.205527,0.995709
0.220208,0.995408
0.234888,0.995107
0.249569,0.994806
0.264249,0.994506
0.27893,0.994207
0.29361,0.993909
0.308291,0.993611
0.322971,0.993313
0.337652,0.993017
0.352332,0.992721
0.367013,0.992425
0.381693,0.99213
0.396374,0.991836
0.411055,0.991542
0.425735,0.991249
0.440416,0.990957
0.455096,0.990665
0.469777,0.990374
0.484457,0.990084
0.499138,0.989794
0.513818,0.989505
0.528499,0.989216
0.543179,0.988928
0.55786,0.988641
0.57254,0.988354
0.587221,0.988068
0.601901,0.987782
0.616582,0.987497
0.631262,0.987213
0.645943,0.986929
0.660623,0.986646
0.675304,0.986363
0.689984,0.986081
0.704665,0.9858
0.719345,0.985519
0.734026,0.985239
0.748706,0.98496
0.763387,0.984681
0.778067,0.984403
0.792748,0.984125
0.807428,0.983848
0.822109,0.983571
0.83679,0.983295
0.85147,0.98302
0.866151,0.982745
0.880831,0.982471
0.895512,0.982198
0.910192,0.981925
0.924873,0.981652
0.939553,0.981381
0.954234,0.98111
0.968914,0.980839
0.983595,0.980569
0.998275,0.9803
1.01296,0.980031
1.02764,0.979763
1.04232,0.979495
1.057,0.979228
1.07168,0.978962
1.08636,0.978696
1.10104,0.978431
1.11572,0.978166
1.1304,0.977902
1.14508,0.977638
1.15976,0.977376
1.17444,0.977113
1.18912,0.976851
1.2038,0.97659
1.21848,0.97633
1.23316,0.97607
1.24784,0.97581
1.26252,0.975551
1.27721,0.975293
1.29189,0.975035
1.30657,0.974778
1.32125,0.974522
1.33593,0.974266
1.35061,0.97401
1.36529,0.973755
1.37997,0.973501
1.39465,0.973247
1.40933,0.972994
1.42401,0.972742
1.43869,0.97249
1.45337,0.972238
1.46805,0.971987
1.48273,0.971737
1.49741,0.971487
1.51209,0.971238
1.52677,0.97099
1.54145,0.970742
1.55613,0.970494
1.57082,0.970247
1.5855,0.970001
1.60018,0.969755
1.61486,0.96951
1.62954,0.969265
1.64422,0.969021
1.6589,0.968777
1.67358,0.968534
1.68826,0.968292
1.70294,0.96805
1.71762,0.967809
1.7323,0.967568
1.74698,0.967327
1.76166,0.967088
1.77634,0.966849
1.79102,0.96661
1.8057,0.966372
1.82038,0.966134
1.83506,0.965897
1.84975,0.965661
1.86443,0.965425
1.87911,0.96519
1.89379,0.964955
1.90847,0.964721
1.92315,0.964487
1.93783,0.964254
1.95251,0.964021
1.96719,0.963789
1.98187,0.963558
1.99655,0.963327
2.01123,0.963096
2.02591,0.962866
2.04059,0.962637
2.05527,0.962408
2.06995,0.96218
2.08463,0.961952
2.09931,0.961725
2.11399,0.961498
2.12868,0.961272
2.14336,0.961046
2.15804,0.960821
2.17272,0.960596
2.1874,0.960372
2.20208,0.960149
2.21676,0.959926
2.23144,0.959703
2.24612,0.959481
2.2608,0.95926
2.27548,0.959039
2.29016,0.958819
2.30484,0.958599
2.31952,0.958379
2.3342,0.958161
2.34888,0.957942
2.36356,0.957725
2.37824,0.957507
2.39292,0.957291
2.4076,0.957074
2.42229,0.956859
2.43697,0.956643
2.45165,0.956429
2.46633,0.956215
2.48101,0.956001
2.49569,0.955788
2.51037,0.955575
2.52505,0.955363
2.53973,0.955151
2.55441,0.95494
2.56909,0.95473
2.58377,0.95452
2.59845,0.95431
2.61313,0.954101
2.62781,0.953893
2.64249,0.953684
2.65717,0.953477
2.67185,0.95327
2.68653,0.953063
2.70122,0.952857
2.7159,0.952652
2.73058,0.952447
2.74526,0.952242
2.75994,0.952038
2.77462,0.951835
2.7893,0.951632
2.80398,0.951429
2.81866,0.951227
2.83334,0.951025
2.84802,0.950824
2.8627,0.950624
2.87738,0.950424
2.89206,0.950224
2.90674,0.950025
2.92142,0.949826
2.9361,0.949628
2.95078,0.949431
2.96546,0.949233
2.98015,0.949037
2.99483,0.948841
3.00951,0.948645
3.02419,0.94845
3.03887,0.948255
3.05355,0.948061
3.06823,0.947867
3.08291,0.947674
3.09759,0.947481
3.11227,0.947289
3.12695,0.947097
3.14163,0.946906
3.15631,0.946715
3.17099,0.946524
3.18567,0.946334
3.20035,0.946145
3.21503,0.945956
3.22971,0.945768
3.24439,0.94558
3.25907,0.945392
3.27376,0.945205
3.28844,0.945018
3.30312,0.944832
3.3178,0.944647
3.33248,0.944461
3.34716,0.944277
3.36184,0.944092
3.37652,0.943909
3.3912,0.943725
3.40588,0.943542
3.42056,0.94336
3.43524,0.943178
3.44992,0.942997
3.4646,0.942816
3.47928,0.942635
3.49396,0.942455
3.50864,0.942276
3.52332,0.942096
3.538,0.941918
3.55269,0.941739
3.56737,0.941562
3.58205,0.941384
3.59673,0.941207
3.61141,0.941031
3.62609,0.940855
3.64077,0.94068
3.65545,0.940505
3.67013,0.94033
3.68481,0.940156
3.69949,0.939982
3.71417,0.939809
3.72885,0.939636
3.74353,0.939464
3.75821,0.939292
3.77289,0.93912
3.78757,0.938949
3.80225,0.938779
3.81693,0.938609
3.83162,0.938439
3.8463,0.93827
3.86098,0.938101
3.87566,0.937932
3.89034,0.937764
3.90502,0.937597
3.9197,0.93743
3.93438,0.937263
3.94906,0.937097
3.96374,0.936931
3.97842,0.936766
3.9931,0.936601
4.00778,0.936437
4.02246,0.936273
4.03714,0.936109
4.05182,0.935946
4.0665,0.935783
4.08118,0.935621
4.09586,0.935459
4.11055,0.935298
4.12523,0.935137
4.13991,0.934976
4.15459,0.934816
4.16927,0.934657
4.18395,0.934497
4.19863,0.934338
4.21331,0.93418
4.22799,0.934022
4.24267,0.933864
4.25735,0.933707
4.27203,0.93355
4.28671,0.933394
4.30139,0.933238
4.31607,0.933083
4.33075,0.932928
4.34543,0.932773
4.36011,0.932619
4.37479,0.932465
4.38947,0.932311
4.40416,0.932158
4.41884,0.932006
4.43352,0.931854
4.4482,0.931702
4.46288,0.931551
4.47756,0.9314
4.49224,0.931249
4.50692,0.931099
4.5216,0.930949
4.53628,0.9308
4.55096,0.930651
4.56564,0.930502
4.58032,0.930354
4.595,0.930207
4.60968,0.930059
4.62436,0.929912
4.63904,0.929766
4.65372,0.92962
4.6684,0.929474
4.68309,0.929329
4.69777,0.929184
4.71245,0.929039
4.72713,0.928895
4.74181,0.928752
4.75649,0.928608
4.77117,0.928465
4.78585,0.928323
4.80053,0.928181
4.81521,0.928039
4.82989,0.927898
4.84457,0.927757
4.85925,0.927616
4.87393,0.927476
4.88861,0.927336
4.90329,0.927197
4.91797,0.927058
4.93265,0.926919
4.94733,0.926781
4.96202,0.926643
4.9767,0.926506
4.99138,0.926368
5.00606,0.926232
5.02074,0.926095
5.03542,0.925959
5.0501,0.925824
5.06478,0.925689
5.07946,0.925554
5.09414,0.925419
5.10882,0.925285
5.1235,0.925152
5.13818,0.925018
5.15286,0.924885
5.16754,0.924753
5.18222,0.924621
5.1969,0.924489
5.21158,0.924357
5.22626,0.924226
5.24094,0.924096
5.25563,0.923965
5.27031,0.923835
5.28499,0.923706
5.29967,0.923576
5.31435,0.923448
5.32903,0.923319
5.34371,0.923191
5.35839,0.923063
5.37307,0.922936
5.38775,0.922809
5.40243,0.922682
5.41711,0.922556
5.43179,0.92243
5.44647,0.922304
5.46115,0.922179
5.47583,0.922054
5.49051,0.921929
5.50519,0.921805
5.51987,0.921681
5.53456,0.921558
5.54924,0.921435
5.56392,0.921312
5.5786,0.92119
5.59328,0.921068
5.60796,0.920946
5.62264,0.920824
5.63732,0.920703
5.652,0.920583
5.66668,0.920462
5.68136,0.920342
5.69604,0.920223
5.71072,0.920104
5.7254,0.919985
5.74008,0.919866
5.75476,0.919748
5.76944,0.91963
5.78412,0.919512
5.7988,0.919395
5.81349,0.919278
5.82817,0.919162
5.84285,0.919045
5.85753,0.91893
5.87221,0.918814
5.88689,0.918699
5.90157,0.918584
5.91625,0.918469
5.93093,0.918355
5.94561,0.918241
5.96029,0.918128
5.97497,0.918015
5.98965,0.917902
6.00433,0.917789
6.01901,0.917677
6.03369,0.917565
6.04837,0.917454
6.06305,0.917342
6.07773,0.917232
6.09241,0.917121
6.1071,0.917011
6.12178,0.916901
6.13646,0.916791
6.15114,0.916682
6.16582,0.916573
6.1805,0.916464
6.19518,0.916356
6.20986,0.916248
6.22454,0.91614
6.23922,0.916033
6.2539,0.915926
6.26858,0.915819
6.28326,0.915713
6.29794,0.915607
6.31262,0.915501
6.3273,0.915396
6.34198,0.91529
6.35666,0.915186
6.37134,0.915081
6.38603,0.914977
6.40071,0.914873
6.41539,0.914769
6.43007,0.914666
6.44475,0.914563
6.45943,0.91446
6.47411,0.914358
6.48879,0.914256
6.50347,0.914154
6.51815,0.914053
6.53283,0.913951
6.54751,0.913851
6.56219,0.91375
6.57687,0.91365
6.59155,0.91355
6.60623,0.91345
6.62091,0.913351
6.63559,0.913252
6.65027,0.913153
6.66496,0.913054
6.67964,0.912956
6.69432,0.912858
6.709,0.912761
6.72368,0.912664
6.73836,0.912567
6.75304,0.91247
6.76772,0.912373
6.7824,0.912277
6.79708,0.912181
6.81176,0.912086
6.82644,0.911991
6.84112,0.911896
6.8558,0.911801
6.87048,0.911706
6.88516,0.911612
6.89984,0.911518
6.91452,0.911425
6.9292,0.911332
6.94389,0.911239
6.95857,0.911146
6.97325,0.911053
6.98793,0.910961
7.00261,0.910869
7.01729,0.910778
7.03197,0.910686
7.04665,0.910595
7.06133,0.910505
7.07601,0.910414
7.09069,0.910324
7.10537,0.910234
7.12005,0.910144
7.13473,0.910055
7.14941,0.909966
7.16409,0.909877
7.17877,0.909788
7.19345,0.9097
7.20813,0.909612
7.22281,0.909524
7.2375,0.909436
7.25218,0.909349
7.26686,0.909262
7.28154,0.909175
7.29622,0.909089
7.3109,0.909003
7.32558,0.908917
7.34026,0.908831
7.35494,0.908746
7.36962,0.90866
7.3843,0.908576
7.39898,0.908491
7.41366,0.908406
7.42834,0.908322
7.44302,0.908238
7.4577,0.908155
7.47238,0.908071
7.48706,0.907988
7.50174,0.907905
7.51643,0.907823
7.53111,0.90774
7.54579,0.907658
7.56047,0.907576
7.57515,0.907495
7.58983,0.907413
7.60451,0.907332
7.61919,0.907251
7.63387,0.907171
7.64855,0.90709
7.66323,0.90701
7.67791,0.90693
7.69259,0.90685
7.70727,0.906771
7.72195,0.906692
7.73663,0.906613
7.75131,0.906534
7.76599,0.906456
7.78067,0.906377
7.79536,0.906299
7.81004,0.906222
7.82472,0.906144
7.8394,0.906067
7.85408,0.90599
7.86876,0.905913
7.88344,0.905836
7.89812,0.90576
7.9128,0.905684
7.92748,0.905608
7.94216,0.905532
7.95684,0.905457
7.97152,0.905382
7.9862,0.905307
8.00088,0.905232
8.01556,0.905157
8.03024,0.905083
8.04492,0.905009
8.0596,0.904935
8.07428,0.904861
8.08897,0.904788
8.10365,0.904715
8.11833,0.904642
8.13301,0.904569
8.14769,0.904496
8.16237,0.904424
8.17705,0.904352
8.19173,0.90428
8.20641,0.904208
8.22109,0.904137
8.23577,0.904066
8.25045,0.903995
8.26513,0.903924
8.27981,0.903853
8.29449,0.903783
8.30917,0.903713
8.32385,0.903643
8.33853,0.903573
8.35321,0.903503
8.3679,0.903434
8.38258,0.903365
8.39726,0.903296
8.41194,0.903227
8.42662,0.903158
8.4413,0.90309
8.45598,0.903022
8.47066,0.902954
8.48534,0.902886
8.50002,0.902819
8.5147,0.902751
8.52938,0.902684
8.54406,0.902617
8.55874,0.902551
8.57342,0.902484
8.5881,0.902418
8.60278,0.902352
8.61746,0.902286
8.63214,0.90222
8.64683,0.902154
8.66151,0.902089
8.67619,0.902024
8.69087,0.901959
8.70555,0.901894
8.72023,0.901829
8.73491,0.901765
8.74959,0.901701
8.76427,0.901636
8.77895,0.901573
8.79363,0.901509
8.80831,0.901445
8.82299,0.901382
8.83767,0.901319
8.85235,0.901256
8.86703,0.901193
8.88171,0.901131
8.89639,0.901068
8.91107,0.901006
8.92575,0.900944
8.94044,0.900882
8.95512,0.90082
8.9698,0.900759
8.98448,0.900697
8.99916,0.900636
9.01384,0.900575
9.02852,0.900514
9.0432,0.900454
9.05788,0.900393
9.07256,0.900333
9.08724,0.900273
9.10192,0.900213
9.1166,0.900153
9.13128,0.900093
9.14596,0.900034
9.16064,0.899974
9.17532,0.899915
9.19,0.899856
9.20468,0.899798
9.21937,0.899739
9.23405,0.89968
9.24873,0.899622
9.26341,0.899564
9.27809,0.899506
9.29277,0.899448
9.30745,0.89939
9.32213,0.899333
9.33681,0.899275
9.35149,0.899218
9.36617,0.899161
9.38085,0.899104
9.39553,0.899047
9.41021,0.898991
9.42489,0.898934
9.43957,0.898878
9.45425,0.898822
9.46893,0.898766
9.48361,0.89871
9.4983,0.898654
9.51298,0.898599
9.52766,0.898543
9.54234,0.898488
9.55702,0.898433
9.5717,0.898378
9.58638,0.898323
9.60106,0.898268
9.61574,0.898214
9.63042,0.898159
9.6451,0.898105
9.65978,0.898051
9.67446,0.897997
9.68914,0.897943
9.70382,0.897889
9.7185,0.897836
9.73318,0.897782
9.74786,0.897729
9.76254,0.897676
9.77722,0.897623
9.79191,0.89757
9.80659,0.897517
9.82127,0.897464
9.83595,0.897412
9.85063,0.897359
9.86531,0.897307
9.87999,0.897255
9.89467,0.897203
9.90935,0.897151
9.92403,0.897099
9.93871,0.897048
9.95339,0.896996
9.96807,0.896945
9.98275,0.896894
9.99743,0.896842
10.0121,0.896791
10.0268,0.896741
10.0415,0.89669
10.0562,0.896639
10.0708,0.896589
10.0855,0.896538
10.1002,0.896488
10.1149,0.896438
10.1296,0.896388
10.1442,0.896338
10.1589,0.896288
10.1736,0.896238
10.1883,0.896189
10.203,0.896139
10.2176,0.89609
10.2323,0.89604
10.247,0.895991
10.2617,0.895942
10.2764,0.895893
10.291,0.895844
10.3057,0.895796
10.3204,0.895747
10.3351,0.895698
10.3498,0.89565
10.3644,0.895602
10.3791,0.895553
10.3938,0.895505
10.4085,0.895457
10.4232,0.895409
10.4378,0.895362
10.4525,0.895314
10.4672,0.895266
10.4819,0.895219
10.4966,0.895171
10.5113,0.895124
10.5259,0.895077
10.5406,0.895029
10.5553,0.894982
10.57,0.894935
10.5847,0.894889
10.5993,0.894842
10.614,0.894795
10.6287,0.894749
10.6434,0.894702
10.6581,0.894656
10.6727,0.894609
10.6874,0.894563
10.7021,0.894517
10.7168,0.894471
10.7315,0.894425
10.7461,0.894379
10.7608,0.894333
10.7755,0.894287
10.7902,0.894242
10.8049,0.894196
10.8195,0.89415
10.8342,0.894105
10.8489,0.89406
10.8636,0.894014
10.8783,0.893969
10.8929,0.893924
10.9076,0.893879
10.9223,0.893834
10.937,0.893789
10.9517,0.893744
10.9663,0.8937
10.981,0.893655
10.9957,0.89361
11.0104,0.893566
11.0251,0.893521
11.0397,0.893477
11.0544,0.893433
11.0691,0.893388
11.0838,0.893344
11.0985,0.8933
11.1132,0.893256
11.1278,0.893212
11.1425,0.893168
11.1572,0.893124
11.1719,0.89308
11.1866,0.893036
11.2012,0.892993
11.2159,0.892949
11.2306,0.892905
11.2453,0.892862
11.26,0.892818
11.2746,0.892775
11.2893,0.892732
11.304,0.892688
11.3187,0.892645
11.3334,0.892602
11.348,0.892559
11.3627,0.892516
11.3774,0.892472
11.3921,0.892429
11.4068,0.892386
11.4214,0.892344
11.4361,0.892301
11.4508,0.892258
11.4655,0.892215
11.4802,0.892172
11.4948,0.89213
11.5095,0.892087
11.5242,0.892044
11.5389,0.892002
11.5536,0.891959
11.5682,0.891917
11.5829,0.891875
11.5976,0.891832
11.6123,0.89179
11.627,0.891747
11.6417,0.891705
11.6563,0.891663
11.671,0.891621
11.6857,0.891579
11.7004,0.891536
11.7151,0.891494
11.7297,0.891452
11.7444,0.89141
11.7591,0.891368
11.7738,0.891326
11.7885,0.891284
11.8031,0.891242
11.8178,0.8912
11.8325,0.891159
11.8472,0.891117
11.8619,0.891075
11.8765,0.891033
11.8912,0.890991
11.9059,0.89095
11.9206,0.890908
11.9353,0.890866
11.9499,0.890824
11.9646,0.890783
11.9793,0.890741
11.994,0.890699
12.0087,0.890658
12.0233,0.890616
12.038,0.890575
12.0527,0.890533
12.0674,0.890492
12.0821,0.89045
12.0967,0.890409
12.1114,0.890367
12.1261,0.890326
12.1408,0.890284
12.1555,0.890243
12.1701,0.890201
12.1848,0.89016
12.1995,0.890118
12.2142,0.890077
12.2289,0.890035
12.2436,0.889994
12.2582,0.889952
12.2729,0.889911
12.2876,0.88987
12.3023,0.889828
12.317,0.889787
12.3316,0.889745
12.3463,0.889704
12.361,0.889662
12.3757,0.889621
12.3904,0.88958
12.405,0.889538
12.4197,0.889497
12.4344,0.889455
12.4491,0.889414
12.4638,0.889372
12.4784,0.889331
12.4931,0.889289
12.5078,0.889248
12.5225,0.889207
12.5372,0.889165
12.5518,0.889124
12.5665,0.889082
12.5812,0.889041
12.5959,0.888999
12.6106,0.888957
12.6252,0.888916
12.6399,0.888874
12.6546,0.888833
12.6693,0.888791
12.684,0.888749
12.6986,0.888708
12.7133,0.888666
12.728,0.888624
12.7427,0.888583
12.7574,0.888541
12.7721,0.888499
12.7867,0.888457
12.8014,0.888416
12.8161,0.888374
12.8308,0.888332
12.8455,0.88829
12.8601,0.888248
12.8748,0.888206
12.8895,0.888164
12.9042,0.888122
12.9189,0.88808
12.9335,0.888038
12.9482,0.887996
12.9629,0.887954
12.9776,0.887912
12.9923,0.88787
13.0069,0.887828
13.0216,0.887785
13.0363,0.887743
13.051,0.887701
13.0657,0.887658
13.0803,0.887616
13.095,0.887574
13.1097,0.887531
13.1244,0.887489
13.1391,0.887446
13.1537,0.887403
13.1684,0.887361
13.1831,0.887318
13.1978,0.887275
13.2125,0.887233
13.2271,0.88719
13.2418,0.887147
13.2565,0.887104
13.2712,0.887061
13.2859,0.887018
13.3005,0.886975
13.3152,0.886932
13.3299,0.886889
13.3446,0.886845
13.3593,0.886802
13.374,0.886759
13.3886,0.886715
13.4033,0.886672
13.418,0.886629
13.4327,0.886585
13.4474,0.886541
13.462,0.886498
13.4767,0.886454
13.4914,0.88641
13.5061,0.886366
13.5208,0.886323
13.5354,0.886279
13.5501,0.886235
13.5648,0.88619
13.5795,0.886146
13.5942,0.886102
13.6088,0.886058
13.6235,0.886013
13.6382,0.885969
13.6529,0.885925
13.6676,0.88588
13.6822,0.885835
13.6969,0.885791
13.7116,0.885746
13.7263,0.885701
13.741,0.885656
13.7556,0.885611
13.7703,0.885566
13.785,0.885521
13.7997,0.885476
13.8144,0.885431
13.829,0.885385
13.8437,0.88534
13.8584,0.885294
13.8731,0.885249
13.8878,0.885203
13.9025,0.885157
13.9171,0.885111
13.9318,0.885065
13.9465,0.885019
13.9612,0.884973
13.9759,0.884927
13.9905,0.884881
14.0052,0.884835
14.0199,0.884788
14.0346,0.884742
14.0493,0.884695
14.0639,0.884648
14.0786,0.884602
14.0933,0.884555
14.108,0.884508
14.1227,0.884461
14.1373,0.884414
14.152,0.884366
14.1667,0.884319
14.1814,0.884271
14.1961,0.884224
14.2107,0.884176
14.2254,0.884129
14.2401,0.884081
14.2548,0.884033
14.2695,0.883985
14.2841,0.883937
14.2988,0.883888
14.3135,0.88384
14.3282,0.883792
14.3429,0.883743
14.3575,0.883694
14.3722,0.883646
14.3869,0.883597
14.4016,0.883548
14.4163,0.883499
14.4309,0.88345
14.4456,0.8834
14.4603,0.883351
14.475,0.883301
14.4897,0.883252
14.5044,0.883202
14.519,0.883152
14.5337,0.883102
14.5484,0.883052
14.5631,0.883002
14.5778,0.882952
14.5924,0.882901
14.6071,0.882851
14.6218,0.8828
14.6365,0.882749
14.6512,0.882698
14.6658,0.882647
14.6805,0.882596
14.6952,0.882545
14.7099,0.882494
14.7246,0.882442
14.7392,0.88239
14.7539,0.882339
14.7686,0.882287
14.7833,0.882235
14.798,0.882183
14.8126,0.88213
14.8273,0.882078
14.842,0.882025
14.8567,0.881973
14.8714,0.88192
14.886,0.881867
14.9007,0.881814
14.9154,0.881761
14.9301,0.881707
14.9448,0.881654
14.9594,0.8816
14.9741,0.881547
14.9888,0.881493
15.0035,0.881439
15.0182,0.881385
15.0329,0.88133
15.0475,0.881276
15.0622,0.881221
15.0769,0.881167
15.0916,0.881112
15.1063,0.881057
15.1209,0.881002
15.1356,0.880946
15.1503,0.880891
15.165,0.880835
15.1797,0.88078
15.1943,0.880724
15.209,0.880668
15.2237,0.880612
15.2384,0.880555
15.2531,0.880499
15.2677,0.880442
15.2824,0.880385
15.2971,0.880328
15.3118,0.880271
15.3265,0.880214
15.3411,0.880157
15.3558,0.880099
15.3705,0.880041
15.3852,0.879984
15.3999,0.879926
15.4145,0.879867
15.4292,0.879809
15.4439,0.87975
15.4586,0.879692
15.4733,0.879633
15.4879,0.879574
15.5026,0.879515
15.5173,0.879455
15.532,0.879396
15.5467,0.879336
15.5613,0.879276
15.576,0.879216
15.5907,0.879156
15.6054,0.879096
15.6201,0.879035
15.6348,0.878975
15.6494,0.878914
15.6641,0.878853
15.6788,0.878792
15.6935,0.87873
15.7082,0.878669
15.7228,0.878607
15.7375,0.878545
15.7522,0.878483
15.7669,0.878421
15.7816,0.878358
15.7962,0.878296
15.8109,0.878233
15.8256,0.87817
15.8403,0.878107
15.855,0.878044
15.8696,0.87798
15.8843,0.877916
15.899,0.877852
15.9137,0.877788
15.9284,0.877724
15.943,0.87766
15.9577,0.877595
15.9724,0.87753
15.9871,0.877465
16.0018,0.8774
16.0164,0.877335
16.0311,0.877269
16.0458,0.877203
16.0605,0.877137
16.0752,0.877071
16.0898,0.877005
16.1045,0.876938
16.1192,0.876871
16.1339,0.876804
16.1486,0.876737
16.1633,0.87667
16.1779,0.876602
16.1926,0.876535
16.2073,0.876467
16.222,0.876398
16.2367,0.87633
16.2513,0.876262
16.266,0.876232
16.2807,0.876201
16.2954,0.876169
16.3101,0.876137
16.3247,0.876103
16.3394,0.876067
16.3541,0.876029
16.3688,0.875989
16.3835,0.875949
16.3981,0.87591
16.4128,0.87587
16.4275,0.875828
16.4422,0.875785
16.4569,0.875741
16.4715,0.875695
16.4862,0.875647
16.5009,0.875599
16.5156,0.87555
16.5303,0.875501
16.5449,0.875451
16.5596,0.875399
16.5743,0.875347
16.589,0.875295
16.6037,0.875242
16.6183,0.875188
16.633,0.875133
16.6477,0.875076
16.6624,0.875019
16.6771,0.874961
16.6917,0.874903
16.7064,0.874843
16.7211,0.874782
16.7358,0.87472
16.7505,0.874659
16.7652,0.874596
16.7798,0.874533
16.7945,0.874469
16.8092,0.874404
16.8239,0.874339
16.8386,0.874273
16.8532,0.874207
16.8679,0.874139
16.8826,0.874072
16.8973,0.874004
16.912,0.873935
16.9266,0.873866
16.9413,0.873795
16.956,0.873725
16.9707,0.873653
16.9854,0.873582
17,0.873509
17.0147,0.873436
17.0294,0.873362
17.0441,0.873288
17.0588,0.873213
17.0734,0.873138
17.0881,0.873062
17.1028,0.872985
17.1175,0.872908
17.1322,0.87283
17.1468,0.872752
17.1615,0.872674
17.1762,0.872594
17.1909,0.872515
17.2056,0.872434
17.2202,0.872353
17.2349,0.872272
17.2496,0.87219
17.2643,0.872108
17.279,0.872025
17.2937,0.871941
17.3083,0.871858
17.323,0.871774
17.3377,0.871689
17.3524,0.871604
17.3671,0.871518
17.3817,0.871432
17.3964,0.871345
17.4111,0.871257
17.4258,0.871169
17.4405,0.871081
17.4551,0.870992
17.4698,0.870903
17.4845,0.870814
17.4992,0.870724
17.5139,0.870633
17.5285,0.870543
17.5432,0.870452
17.5579,0.87036
17.5726,0.870268
17.5873,0.870176
17.6019,0.870083
17.6166,0.86999
17.6313,0.869897
17.646,0.869803
17.6607,0.869709
17.6753,0.869614
17.69,0.869519
17.7047,0.869424
17.7194,0.869328
17.7341,0.869232
17.7487,0.869135
17.7634,0.869038
17.7781,0.868941
17.7928,0.868843
17.8075,0.868745
17.8221,0.868647
17.8368,0.868548
17.8515,0.868449
17.8662,0.86835
17.8809,0.86825
17.8956,0.86815
17.9102,0.86805
17.9249,0.867949
17.9396,0.867849
17.9543,0.867748
17.969,0.867646
17.9836,0.867544
17.9983,0.867442
18.013,0.86734
18.0277,0.867237
18.0424,0.867134
18.057,0.86703
18.0717,0.866926
18.0864,0.866821
18.1011,0.866717
18.1158,0.866612
18.1304,0.866506
18.1451,0.8664
18.1598,0.866294
18.1745,0.866187
18.1892,0.86608
18.2038,0.865972
18.2185,0.865864
18.2332,0.865756
18.2479,0.865647
18.2626,0.865538
18.2772,0.865429
18.2919,0.86532
18.3066,0.86521
18.3213,0.865099
18.336,0.864988
18.3506,0.864877
18.3653,0.864765
18.38,0.864653
18.3947,0.864541
18.4094,0.864428
18.4241,0.864315
18.4387,0.864202
18.4534,0.864088
18.4681,0.863973
18.4828,0.863859
18.4975,0.863744
18.5121,0.863628
18.5268,0.863512
18.5415,0.863396
18.5562,0.863279
18.5709,0.863162
18.5855,0.863044
18.6002,0.862926
18.6149,0.862807
18.6296,0.862688
18.6443,0.862569
18.6589,0.862449
18.6736,0.862329
18.6883,0.862209
18.703,0.862088
18.7177,0.861967
18.7323,0.861845
18.747,0.861723
18.7617,0.861601
18.7764,0.861478
18.7911,0.861355
18.8057,0.861231
18.8204,0.861108
18.8351,0.860983
18.8498,0.860859
18.8645,0.860734
18.8791,0.860608
18.8938,0.860482
18.9085,0.860356
18.9232,0.860229
18.9379,0.860102
18.9525,0.859974
18.9672,0.859845
18.9819,0.859716
18.9966,0.859587
19.0113,0.859456
19.026,0.859326
19.0406,0.859194
19.0553,0.859063
19.07,0.858931
19.0847,0.858798
19.0994,0.858665
19.114,0.858531
19.1287,0.858396
19.1434,0.858261
19.1581,0.858125
19.1728,0.857989
19.1874,0.857852
19.2021,0.857715
19.2168,0.857576
19.2315,0.857437
19.2462,0.857298
19.2608,0.857158
19.2755,0.857017
19.2902,0.856876
19.3049,0.856734
19.3196,0.856592
19.3342,0.856449
19.3489,0.856305
19.3636,0.85616
19.3783,0.856015
19.393,0.855869
19.4076,0.855723
19.4223,0.855575
19.437,0.855427
19.4517,0.855279
19.4664,0.85513
19.481,0.85498
19.4957,0.854829
19.5104,0.854678
19.5251,0.854526
19.5398,0.854373
19.5544,0.85422
19.5691,0.854066
19.5838,0.853911
19.5985,0.853756
19.6132,0.8536
19.6279,0.853443
19.6425,0.853286
19.6572,0.853128
19.6719,0.852969
19.6866,0.85281
19.7013,0.85265
19.7159,0.85249
19.7306,0.852329
19.7453,0.852167
19.76,0.852005
19.7747,0.851841
19.7893,0.851678
19.804,0.851513
19.8187,0.851348
19.8334,0.851182
19.8481,0.851016
19.8627,0.850849
19.8774,0.850681
19.8921,0.850513
19.9068,0.850343
19.9215,0.850174
19.9361,0.850003
19.9508,0.849832
19.9655,0.84966
19.9802,0.849488
19.9949,0.849315
20.0095,0.849142
20.0242,0.848967
20.0389,0.848793
20.0536,0.848617
20.0683,0.848441
20.0829,0.848264
20.0976,0.848086
20.1123,0.847908
20.127,0.847729
20.1417,0.847549
20.1564,0.847369
20.171,0.847188
20.1857,0.847007
20.2004,0.846824
20.2151,0.846642
20.2298,0.846459
20.2444,0.846275
20.2591,0.84609
20.2738,0.845905
20.2885,0.845719
20.3032,0.845532
20.3178,0.845345
20.3325,0.845157
20.3472,0.844968
20.3619,0.844779
20.3766,0.84459
20.3912,0.844399
20.4059,0.844208
20.4206,0.844016
20.4353,0.843824
20.45,0.843631
20.4646,0.843437
20.4793,0.843242
20.494,0.843047
20.5087,0.842852
20.5234,0.842655
20.538,0.842458
20.5527,0.842261
20.5674,0.842063
20.5821,0.841865
20.5968,0.841666
20.6114,0.841466
20.6261,0.841265
20.6408,0.841065
20.6555,0.840863
20.6702,0.840661
20.6848,0.840459
20.6995,0.840256
20.7142,0.840052
20.7289,0.839848
20.7436,0.839643
20.7583,0.839438
20.7729,0.839232
20.7876,0.839026
20.8023,0.838819
20.817,0.838611
20.8317,0.838402
20.8463,0.838194
20.861,0.837984
20.8757,0.837774
20.8904,0.837564
20.9051,0.837353
20.9197,0.837142
20.9344,0.83693
20.9491,0.836717
20.9638,0.836503
20.9785,0.836289
20.9931,0.836074
21.0078,0.835859
21.0225,0.835642
21.0372,0.835426
21.0519,0.835208
21.0665,0.834991
21.0812,0.834772
21.0959,0.834554
21.1106,0.834334
21.1253,0.834114
21.1399,0.833894
21.1546,0.833672
21.1693,0.83345
21.184,0.833228
21.1987,0.833005
21.2133,0.832781
21.228,0.832556
21.2427,0.832331
21.2574,0.832106
21.2721,0.831879
21.2868,0.831653
21.3014,0.831426
21.3161,0.831199
21.3308,0.830971
21.3455,0.830742
21.3602,0.830513
21.3748,0.830283
21.3895,0.830052
21.4042,0.829821
21.4189,0.829589
21.4336,0.829356
21.4482,0.829123
21.4629,0.828889
21.4776,0.828656
21.4923,0.828421
21.507,0.828187
21.5216,0.827951
21.5363,0.827715
21.551,0.827479
21.5657,0.827242
21.5762,0.827072