File: smoothed_normalized_data/30.0mA3msec-0.2mA7msec.csv
Capacity_mAh,Voltage_V
0.0,1.0
0.0330055,0.999121
0.0660109,0.998248
0.0990164,0.99738
0.132022,0.996517
0.165027,0.995659
0.198033,0.994806
0.231038,0.993959
0.264044,0.993116
0.297049,0.992279
0.330055,0.991447
0.36306,0.99062
0.396066,0.989798
0.429071,0.988981
0.462077,0.988169
0.495082,0.987363
0.528088,0.986561
0.561093,0.985764
0.594098,0.984972
0.627104,0.984186
0.660109,0.983404
0.693115,0.982627
0.72612,0.981855
0.759126,0.981088
0.792131,0.980326
0.825137,0.979569
0.858142,0.978816
0.891148,0.978069
0.924153,0.977326
0.957159,0.976588
0.990164,0.975855
1.02317,0.975127
1.05618,0.974404
1.08918,0.973685
1.12219,0.972971
1.15519,0.972262
1.1882,0.971558
1.2212,0.970858
1.25421,0.970163
1.28721,0.969473
1.32022,0.968787
1.35322,0.968107
1.38623,0.96743
1.41924,0.966759
1.45224,0.966092
1.48525,0.965429
1.51825,0.964771
1.55126,0.964118
1.58426,0.963469
1.61727,0.962825
1.65027,0.962185
1.68328,0.96155
1.71628,0.96092
1.74929,0.960294
1.7823,0.959672
1.8153,0.959055
1.84831,0.958442
1.88131,0.957833
1.91432,0.95723
1.94732,0.95663
1.98033,0.956035
2.01333,0.955444
2.04634,0.954858
2.07934,0.954275
2.11235,0.953698
2.14536,0.953124
2.17836,0.952555
2.21137,0.95199
2.24437,0.951429
2.27738,0.950873
2.31038,0.950321
2.34339,0.949773
2.37639,0.949229
2.4094,0.94869
2.4424,0.948154
2.47541,0.947623
2.50842,0.947096
2.54142,0.946573
2.57443,0.946055
2.60743,0.94554
2.64044,0.945029
2.67344,0.944523
2.70645,0.94402
2.73945,0.943522
2.77246,0.943028
2.80547,0.942537
2.83847,0.942051
2.87148,0.941569
2.90448,0.94109
2.93749,0.940616
2.97049,0.940145
3.0035,0.939679
3.0365,0.939216
3.06951,0.938757
3.10251,0.938303
3.13552,0.937852
3.16853,0.937405
3.20153,0.936961
3.23454,0.936522
3.26754,0.936086
3.30055,0.935654
3.33355,0.935226
3.36656,0.934802
3.39956,0.934382
3.43257,0.933965
3.46557,0.933552
3.49858,0.933143
3.53159,0.932737
3.56459,0.932335
3.5976,0.931937
3.6306,0.931542
3.66361,0.931151
3.69661,0.930764
3.72962,0.93038
3.76262,0.93
3.79563,0.929623
3.82863,0.92925
3.86164,0.928881
3.89465,0.928515
3.92765,0.928153
3.96066,0.927794
3.99366,0.927439
4.02667,0.927087
4.05967,0.926738
4.09268,0.926393
4.12568,0.926052
4.15869,0.925714
4.19169,0.925379
4.2247,0.925048
4.25771,0.92472
4.29071,0.924395
4.32372,0.924074
4.35672,0.923756
4.38973,0.923441
4.42273,0.92313
4.45574,0.922822
4.48874,0.922518
4.52175,0.922216
4.55476,0.921918
4.58776,0.921623
4.62077,0.921331
4.65377,0.921043
4.68678,0.920757
4.71978,0.920475
4.75279,0.920196
4.78579,0.91992
4.8188,0.919648
4.8518,0.919378
4.88481,0.919112
4.91782,0.918848
4.95082,0.918588
4.98383,0.91833
5.01683,0.918076
5.04984,0.917825
5.08284,0.917577
5.11585,0.917332
5.14885,0.917089
5.18186,0.91685
5.21486,0.916614
5.24787,0.91638
5.28088,0.91615
5.31388,0.915923
5.34689,0.915698
5.37989,0.915476
5.4129,0.915257
5.4459,0.915041
5.47891,0.914828
5.51191,0.914618
5.54492,0.91441
5.57792,0.914206
5.61093,0.914004
5.64394,0.913804
5.67694,0.913608
5.70995,0.913414
5.74295,0.913223
5.77596,0.913035
5.80896,0.912849
5.84197,0.912667
5.87497,0.912486
5.90798,0.912309
5.94098,0.912134
5.97399,0.911961
6.007,0.911792
6.04,0.911625
6.07301,0.91146
6.10601,0.911298
6.13902,0.911139
6.17202,0.910982
6.20503,0.910827
6.23803,0.910676
6.27104,0.910526
6.30404,0.910379
6.33705,0.910235
6.37006,0.910093
6.40306,0.909953
6.43607,0.909816
6.46907,0.909681
6.50208,0.909549
6.53508,0.909419
6.56809,0.909291
6.60109,0.909166
6.6341,0.909043
6.66711,0.908923
6.70011,0.908804
6.73312,0.908688
6.76612,0.908574
6.79913,0.908463
6.83213,0.908354
6.86514,0.908247
6.89814,0.908142
6.93115,0.908039
6.96415,0.907939
6.99716,0.90784
7.03017,0.907744
7.06317,0.90765
7.09618,0.907558
7.12918,0.907469
7.16219,0.907381
7.19519,0.907295
7.2282,0.907212
7.2612,0.907131
7.29421,0.907051
7.32721,0.906974
7.36022,0.906898
7.39323,0.906825
7.42623,0.906754
7.45924,0.906684
7.49224,0.906617
7.52525,0.906551
7.55825,0.906488
7.59126,0.906426
7.62426,0.906366
7.65727,0.906308
7.69027,0.906252
7.72328,0.906198
7.75629,0.906146
7.78929,0.906095
7.8223,0.906046
7.8553,0.905999
7.88831,0.905954
7.92131,0.905911
7.95432,0.905869
7.98732,0.905829
8.02033,0.905791
8.05333,0.905754
8.08634,0.90572
8.11935,0.905686
8.15235,0.905655
8.18536,0.905625
8.21836,0.905597
8.25137,0.90557
8.28437,0.905545
8.31738,0.905522
8.35038,0.9055
8.38339,0.90548
8.4164,0.905461
8.4494,0.905444
8.48241,0.905428
8.51541,0.905414
8.54842,0.905401
8.58142,0.90539
8.61443,0.90538
8.64743,0.905372
8.68044,0.905365
8.71344,0.90536
8.74645,0.905356
8.77946,0.905353
8.81246,0.905351
8.84547,0.905352
8.87847,0.905353
8.91148,0.905356
8.94448,0.90536
8.97749,0.905365
9.01049,0.905371
9.0435,0.905379
9.0765,0.905388
9.10951,0.905399
9.14252,0.90541
9.17552,0.905423
9.20853,0.905437
9.24153,0.905452
9.27454,0.905469
9.30754,0.905486
9.34055,0.905505
9.37355,0.905524
9.40656,0.905545
9.43956,0.905567
9.47257,0.90559
9.50558,0.905614
9.53858,0.905639
9.57159,0.905666
9.60459,0.905693
9.6376,0.905721
9.6706,0.90575
9.70361,0.90578
9.73661,0.905811
9.76962,0.905843
9.80262,0.905876
9.83563,0.90591
9.86864,0.906083
9.90164,0.906234
9.93465,0.906365
9.96765,0.906484
10.0007,0.906591
10.0337,0.906691
10.0667,0.906783
10.0997,0.90687
10.1327,0.906952
10.1657,0.907029
10.1987,0.907102
10.2317,0.907171
10.2647,0.907237
10.2977,0.9073
10.3307,0.907359
10.3637,0.907415
10.3967,0.907468
10.4297,0.907518
10.4627,0.907565
10.4957,0.907608
10.5287,0.907649
10.5618,0.907687
10.5948,0.907723
10.6278,0.907757
10.6608,0.907788
10.6938,0.907816
10.7268,0.907842
10.7598,0.907867
10.7928,0.90789
10.8258,0.907911
10.8588,0.907931
10.8918,0.907949
10.9248,0.907965
10.9578,0.90798
10.9908,0.907994
11.0238,0.908008
11.0568,0.90802
11.0898,0.908031
11.1228,0.908041
11.1558,0.90805
11.1889,0.908057
11.2219,0.908062
11.2549,0.908068
11.2879,0.908072
11.3209,0.908077
11.3539,0.908081
11.3869,0.908085
11.4199,0.908089
11.4529,0.908094
11.4859,0.9081
11.5189,0.908106
11.5519,0.908111
11.5849,0.908116
11.6179,0.90812
11.6509,0.908124
11.6839,0.908127
11.7169,0.908131
11.7499,0.908135
11.783,0.908139
11.816,0.908144
11.849,0.908149
11.882,0.908154
11.915,0.908159
11.948,0.908164
11.981,0.908169
12.014,0.908172
12.047,0.908176
12.08,0.90818
12.113,0.908185
12.146,0.90819
12.179,0.908195
12.212,0.9082
12.245,0.908205
12.278,0.908211
12.311,0.908217
12.344,0.908224
12.3771,0.90823
12.4101,0.908236
12.4431,0.908243
12.4761,0.90825
12.5091,0.908257
12.5421,0.908264
12.5751,0.908271
12.6081,0.908278
12.6411,0.908286
12.6741,0.908293
12.7071,0.9083
12.7401,0.908307
12.7731,0.908315
12.8061,0.908322
12.8391,0.908329
12.8721,0.908335
12.9051,0.908342
12.9381,0.908348
12.9712,0.908355
13.0042,0.908362
13.0372,0.908368
13.0702,0.908375
13.1032,0.908382
13.1362,0.908388
13.1692,0.908395
13.2022,0.908401
13.2352,0.908406
13.2682,0.908411
13.3012,0.908416
13.3342,0.908421
13.3672,0.908424
13.4002,0.908428
13.4332,0.90843
13.4662,0.908432
13.4992,0.908435
13.5322,0.908437
13.5652,0.908438
13.5983,0.908439
13.6313,0.90844
13.6643,0.90844
13.6973,0.908441
13.7303,0.908441
13.7633,0.908442
13.7963,0.908442
13.8293,0.908442
13.8623,0.908442
13.8953,0.908441
13.9283,0.90844
13.9613,0.908439
13.9943,0.908438
14.0273,0.908436
14.0603,0.908434
14.0933,0.908432
14.1263,0.908429
14.1593,0.908426
14.1924,0.908423
14.2254,0.908419
14.2584,0.908415
14.2914,0.90841
14.3244,0.908405
14.3574,0.908399
14.3904,0.908392
14.4234,0.908385
14.4564,0.908378
14.4894,0.908371
14.5224,0.908363
14.5554,0.908355
14.5884,0.908347
14.6214,0.908337
14.6544,0.908329
14.6874,0.90832
14.7204,0.908312
14.7534,0.908304
14.7865,0.908296
14.8195,0.908288
14.8525,0.90828
14.8855,0.908271
14.9185,0.908262
14.9515,0.908253
14.9845,0.908244
15.0175,0.908235
15.0505,0.908225
15.0835,0.908215
15.1165,0.908205
15.1495,0.908193
15.1825,0.908182
15.2155,0.908169
15.2485,0.908156
15.2815,0.908142
15.3145,0.908128
15.3475,0.908113
15.3805,0.908098
15.4136,0.908083
15.4466,0.908067
15.4796,0.908049
15.5126,0.908031
15.5456,0.908012
15.5786,0.907993
15.6116,0.907974
15.6446,0.907955
15.6776,0.907936
15.7106,0.907916
15.7436,0.907891
15.7766,0.907865
15.8096,0.907838
15.8426,0.90781
15.8756,0.907781
15.9086,0.907749
15.9416,0.907714
15.9746,0.907676
16.0077,0.907636
16.0407,0.907598
16.0737,0.907563
16.1067,0.907531
16.1397,0.9075
16.1727,0.907468
16.2057,0.907435
16.2387,0.907399
16.2717,0.907361
16.3047,0.90732
16.3377,0.90728
16.3707,0.90724
16.4037,0.9072
16.4367,0.90716
16.4697,0.90712
16.5027,0.90708
16.5357,0.907039
16.5687,0.906998
16.6018,0.906957
16.6348,0.906914
16.6678,0.906869
16.7008,0.906823
16.7338,0.906777
16.7668,0.906731
16.7998,0.906684
16.8328,0.906637
16.8658,0.90659
16.8988,0.906544
16.9318,0.906497
16.9648,0.90645
16.9978,0.906401
17.0308,0.906351
17.0638,0.9063
17.0968,0.906249
17.1298,0.906197
17.1628,0.906145
17.1959,0.906095
17.2289,0.906045
17.2619,0.905997
17.2949,0.90595
17.3279,0.905902
17.3609,0.905853
17.3939,0.905805
17.4269,0.905758
17.4599,0.905712
17.4929,0.905665
17.5259,0.905618
17.5589,0.905571
17.5919,0.905524
17.6249,0.905478
17.6579,0.905432
17.6909,0.905385
17.7239,0.905337
17.7569,0.905288
17.7899,0.905238
17.823,0.90519
17.856,0.905142
17.889,0.905094
17.922,0.905045
17.955,0.904997
17.988,0.904947
18.021,0.904897
18.054,0.904844
18.087,0.904792
18.12,0.904741
18.153,0.904691
18.186,0.904643
18.219,0.904595
18.252,0.904547
18.285,0.904498
18.318,0.904449
18.351,0.904399
18.384,0.90435
18.4171,0.904299
18.4501,0.904249
18.4831,0.904199
18.5161,0.90415
18.5491,0.9041
18.5821,0.904049
18.6151,0.903999
18.6481,0.903948
18.6811,0.903896
18.7141,0.903844
18.7471,0.903791
18.7801,0.903738
18.8131,0.903684
18.8461,0.903631
18.8791,0.903578
18.9121,0.903524
18.9451,0.903472
18.9781,0.90342
19.0112,0.903367
19.0442,0.903315
19.0772,0.903263
19.1102,0.903211
19.1432,0.903158
19.1762,0.903105
19.2092,0.903052
19.2422,0.902999
19.2752,0.902948
19.3082,0.902897
19.3412,0.902846
19.3742,0.902795
19.4072,0.902744
19.4402,0.902694
19.4732,0.902644
19.5062,0.902593
19.5392,0.902543
19.5722,0.902492
19.6052,0.902442
19.6383,0.902391
19.6713,0.902341
19.7043,0.902291
19.7373,0.902241
19.7703,0.902191
19.8033,0.90214
19.8363,0.902089
19.8693,0.902038
19.9023,0.901988
19.9353,0.901937
19.9683,0.901885
20.0013,0.901834
20.0343,0.901782
20.0673,0.901731
20.1003,0.90168
20.1333,0.901628
20.1663,0.901576
20.1993,0.901524
20.2324,0.901472
20.2654,0.90142
20.2984,0.901368
20.3314,0.901316
20.3644,0.901263
20.3974,0.901211
20.4304,0.901158
20.4634,0.901106
20.4964,0.901054
20.5294,0.901002
20.5624,0.900949
20.5954,0.900896
20.6284,0.900843
20.6614,0.90079
20.6944,0.900737
20.7274,0.900684
20.7604,0.90063
20.7934,0.900576
20.8265,0.900522
20.8595,0.900468
20.8925,0.900414
20.9255,0.90036
20.9585,0.900306
20.9915,0.900252
21.0245,0.900199
21.0575,0.900145
21.0905,0.90009
21.1235,0.900036
21.1565,0.899982
21.1895,0.899928
21.2225,0.899873
21.2555,0.899819
21.2885,0.899764
21.3215,0.899709
21.3545,0.899654
21.3875,0.899599
21.4206,0.899544
21.4536,0.899489
21.4866,0.899434
21.5196,0.899379
21.5526,0.899324
21.5856,0.899268
21.6186,0.899213
21.6516,0.899157
21.6846,0.899102
21.7176,0.899046
21.7506,0.89899
21.7836,0.898934
21.8166,0.898878
21.8496,0.898823
21.8826,0.898767
21.9156,0.898712
21.9486,0.898656
21.9816,0.898601
22.0146,0.898546
22.0477,0.89849
22.0807,0.898435
22.1137,0.89838
22.1467,0.898324
22.1797,0.898268
22.2127,0.898212
22.2457,0.898155
22.2787,0.8981
22.3117,0.898043
22.3447,0.897986
22.3777,0.897929
22.4107,0.897872
22.4437,0.897815
22.4767,0.897758
22.5097,0.8977
22.5427,0.897642
22.5757,0.897585
22.6087,0.897527
22.6418,0.897468
22.6748,0.89741
22.7078,0.897353
22.7408,0.897295
22.7738,0.897237
22.8068,0.897179
22.8398,0.897121
22.8728,0.897062
22.9058,0.897003
22.9388,0.896944
22.9718,0.896885
23.0048,0.896826
23.0378,0.896767
23.0708,0.896708
23.1038,0.896649
23.1368,0.896589
23.1698,0.89653
23.2028,0.89647
23.2359,0.896411
23.2689,0.896351
23.3019,0.896291
23.3349,0.896231
23.3679,0.896171
23.4009,0.89611
23.4339,0.89605
23.4669,0.895989
23.4999,0.895929
23.5329,0.895868
23.5659,0.895807
23.5989,0.895746
23.6319,0.895685
23.6649,0.895623
23.6979,0.895561
23.7309,0.895499
23.7639,0.895437
23.7969,0.895375
23.83,0.895314
23.863,0.895252
23.896,0.89519
23.929,0.895127
23.962,0.895065
23.995,0.895002
24.028,0.894939
24.061,0.894876
24.094,0.894812
24.127,0.894749
24.16,0.894685
24.193,0.894621
24.226,0.894556
24.259,0.894492
24.292,0.894427
24.325,0.894363
24.358,0.894299
24.391,0.894234
24.424,0.894169
24.4571,0.894104
24.4901,0.894039
24.5231,0.893974
24.5561,0.893908
24.5891,0.893843
24.6221,0.893777
24.6551,0.893712
24.6881,0.893646
24.7211,0.89358
24.7541,0.893514
24.7871,0.893448
24.8201,0.893381
24.8531,0.893315
24.8861,0.893248
24.9191,0.893181
24.9521,0.893114
24.9851,0.893047
25.0181,0.892979
25.0512,0.892912
25.0842,0.892845
25.1172,0.892778
25.1502,0.89271
25.1832,0.892643
25.2162,0.892576
25.2492,0.892509
25.2822,0.892442
25.3152,0.892375
25.3482,0.892307
25.3812,0.89224
25.4142,0.892173
25.4472,0.892105
25.4802,0.892038
25.5132,0.89197
25.5462,0.891903
25.5792,0.891835
25.6122,0.891766
25.6453,0.891697
25.6783,0.891628
25.7113,0.891559
25.7443,0.891489
25.7773,0.891419
25.8103,0.891349
25.8433,0.891279
25.8763,0.891209
25.9093,0.891138
25.9423,0.891067
25.9753,0.890996
26.0083,0.890924
26.0413,0.890852
26.0743,0.89078
26.1073,0.890708
26.1403,0.890636
26.1733,0.890563
26.2063,0.89049
26.2393,0.890418
26.2724,0.890345
26.3054,0.890272
26.3384,0.890198
26.3714,0.890124
26.4044,0.89005
26.4374,0.889976
26.4704,0.889902
26.5034,0.889828
26.5364,0.889753
26.5694,0.889678
26.6024,0.889603
26.6354,0.889528
26.6684,0.889453
26.7014,0.889378
26.7344,0.889304
26.7674,0.889228
26.8004,0.889152
26.8334,0.889077
26.8665,0.889
26.8995,0.888924
26.9325,0.888848
26.9655,0.888772
26.9985,0.888695
27.0315,0.888618
27.0645,0.88854
27.0975,0.888463
27.1305,0.888385
27.1635,0.888308
27.1965,0.88823
27.2295,0.888153
27.2625,0.888074
27.2955,0.887997
27.3285,0.887919
27.3615,0.887841
27.3945,0.887763
27.4275,0.887685
27.4606,0.887606
27.4936,0.887528
27.5266,0.887449
27.5596,0.88737
27.5926,0.887291
27.6256,0.887212
27.6586,0.887132
27.6916,0.887052
27.7246,0.886972
27.7576,0.886893
27.7906,0.886813
27.8236,0.886732
27.8566,0.886652
27.8896,0.886571
27.9226,0.88649
27.9556,0.886409
27.9886,0.886329
28.0216,0.886247
28.0547,0.886166
28.0877,0.886085
28.1207,0.886003
28.1537,0.885922
28.1867,0.88584
28.2197,0.885758
28.2527,0.885676
28.2857,0.885593
28.3187,0.885511
28.3517,0.885429
28.3847,0.885346
28.4177,0.885264
28.4507,0.885181
28.4837,0.885098
28.5167,0.885015
28.5497,0.884932
28.5827,0.884849
28.6157,0.884766
28.6487,0.884683
28.6818,0.884599
28.7148,0.884516
28.7478,0.884432
28.7808,0.884348
28.8138,0.884263
28.8468,0.884178
28.8798,0.884093
28.9128,0.884008
28.9458,0.883922
28.9788,0.883836
29.0118,0.883751
29.0448,0.883665
29.0778,0.883578
29.1108,0.883492
29.1438,0.883406
29.1768,0.883319
29.2098,0.883232
29.2428,0.883145
29.2759,0.883058
29.3089,0.88297
29.3419,0.882883
29.3749,0.882795
29.4079,0.882706
29.4409,0.882618
29.4739,0.88253
29.5069,0.882442
29.5399,0.882354
29.5729,0.882266
29.6059,0.882178
29.6389,0.882089
29.6719,0.882
29.7049,0.881911
29.7379,0.881822
29.7709,0.881733
29.8039,0.881643
29.8369,0.881554
29.87,0.881464
29.903,0.881373
29.936,0.881283
29.969,0.881193
30.002,0.881102
30.035,0.881011
30.068,0.88092
30.101,0.880828
30.134,0.880735
30.167,0.880643
30.2,0.88055
30.233,0.880458
30.266,0.880365
30.299,0.880271
30.332,0.880178
30.365,0.880085
30.398,0.879991
30.431,0.879897
30.464,0.879803
30.4971,0.879709
30.5301,0.879614
30.5631,0.87952
30.5961,0.879425
30.6291,0.87933
30.6621,0.879234
30.6951,0.879139
30.7281,0.879043
30.7611,0.878947
30.7941,0.878851
30.8271,0.878756
30.8601,0.87866
30.8931,0.878563
30.9261,0.878467
30.9591,0.87837
30.9921,0.878273
31.0251,0.878176
31.0581,0.878079
31.0912,0.877981
31.1242,0.877883
31.1572,0.877785
31.1902,0.877687
31.2232,0.877589
31.2562,0.87749
31.2892,0.877392
31.3222,0.877293
31.3552,0.877194
31.3882,0.877095
31.4212,0.876996
31.4542,0.876896
31.4872,0.876796
31.5202,0.876697
31.5532,0.876597
31.5862,0.876497
31.6192,0.876397
31.6522,0.876297
31.6853,0.876197
31.7183,0.876097
31.7513,0.875996
31.7843,0.875895
31.8173,0.875794
31.8503,0.875693
31.8833,0.875592
31.9163,0.87549
31.9493,0.875388
31.9823,0.875287
32.0153,0.875184
32.0483,0.875083
32.0813,0.874981
32.1143,0.874878
32.1473,0.874776
32.1803,0.874673
32.2133,0.87457
32.2463,0.874467
32.2794,0.874363
32.3124,0.874259
32.3454,0.874155
32.3784,0.874051
32.4114,0.873947
32.4444,0.873843
32.4774,0.873738
32.5104,0.873634
32.5434,0.873529
32.5764,0.873424
32.6094,0.873319
32.6424,0.873214
32.6754,0.873109
32.7084,0.873003
32.7414,0.872897
32.7744,0.872791
32.8074,0.872684
32.8404,0.872577
32.8734,0.87247
32.9065,0.872364
32.9395,0.872256
32.9725,0.872149
33.0055,0.872041
33.0385,0.871933
33.0715,0.871824
33.1045,0.871716
33.1375,0.871606
33.1705,0.871497
33.2035,0.871388
33.2365,0.871279
33.2695,0.87117
33.3025,0.87106
33.3355,0.87095
33.3685,0.870839
33.4015,0.870728
33.4345,0.870617
33.4675,0.870506
33.5006,0.870395
33.5336,0.870283
33.5666,0.870171
33.5996,0.870059
33.6326,0.869947
33.6656,0.869834
33.6986,0.869721
33.7316,0.869608
33.7646,0.869495
33.7976,0.869382
33.8306,0.869268
33.8636,0.869155
33.8966,0.869041
33.9296,0.868927
33.9626,0.868812
33.9956,0.868698
34.0286,0.868583
34.0616,0.868469
34.0947,0.868354
34.1277,0.868239
34.1607,0.868124
34.1937,0.868009
34.2267,0.867894
34.2597,0.867778
34.2927,0.867662
34.3257,0.867546
34.3587,0.867429
34.3917,0.867313
34.4247,0.867197
34.4577,0.86708
34.4907,0.866964
34.5237,0.866847
34.5567,0.866729
34.5897,0.866611
34.6227,0.866493
34.6557,0.866374
34.6888,0.866256
34.7218,0.866137
34.7548,0.866018
34.7878,0.865899
34.8208,0.865779
34.8538,0.865659
34.8868,0.865539
34.9198,0.865418
34.9528,0.865297
34.9858,0.865176
35.0188,0.865054
35.0518,0.864932
35.0848,0.86481
35.1178,0.864688
35.1508,0.864566
35.1838,0.864444
35.2168,0.864322
35.2498,0.864199
35.2828,0.864076
35.3159,0.863953
35.3489,0.863829
35.3819,0.863706
35.4149,0.863581
35.4479,0.863457
35.4809,0.863332
35.5139,0.863208
35.5469,0.863083
35.5799,0.862959
35.6129,0.862834
35.6459,0.862709
35.6789,0.862585
35.7119,0.86246
35.7449,0.862334
35.7779,0.862207
35.8109,0.862081
35.8439,0.861954
35.8769,0.861827
35.91,0.861699
35.943,0.861572
35.976,0.861444
36.009,0.861316
36.042,0.861187
36.075,0.861058
36.108,0.860929
36.141,0.860799
36.174,0.860669
36.207,0.860539
36.24,0.860409
36.273,0.860278
36.306,0.860147
36.339,0.860015
36.372,0.859884
36.405,0.859752
36.438,0.85962
36.471,0.859487
36.5041,0.859354
36.5371,0.859221
36.5701,0.859088
36.6031,0.858954
36.6361,0.85882
36.6691,0.858686
36.7021,0.858551
36.7351,0.858417
36.7681,0.858281
36.8011,0.858145
36.8341,0.858009
36.8671,0.857873
36.9001,0.857737
36.9331,0.8576
36.9661,0.857463
36.9991,0.857325
37.0321,0.857188
37.0651,0.857049
37.0981,0.85691
37.1312,0.856772
37.1642,0.856633
37.1972,0.856495
37.2302,0.856356
37.2632,0.856216
37.2962,0.856075
37.3292,0.855935
37.3622,0.855795
37.3952,0.855654
37.4282,0.855512
37.4612,0.855371
37.4942,0.855228
37.5272,0.855086
37.5602,0.854943
37.5932,0.854801
37.6262,0.854657
37.6592,0.854514
37.6922,0.85437
37.7253,0.854227
37.7583,0.854082
37.7913,0.853938
37.8243,0.853793
37.8573,0.853648
37.8903,0.853502
37.9233,0.853356
37.9563,0.85321
37.9893,0.853063
38.0223,0.852915
38.0553,0.852767
38.0883,0.852619
38.1213,0.852471
38.1543,0.852322
38.1873,0.852172
38.2203,0.852023
38.2533,0.851872
38.2863,0.851721
38.3194,0.851569
38.3524,0.851416
38.3854,0.851262
38.4184,0.851108
38.4514,0.850954
38.4844,0.850798
38.5174,0.850642
38.5504,0.850484
38.5834,0.850326
38.6164,0.850168
38.6494,0.850008
38.6824,0.849847
38.7154,0.849686
38.7484,0.849525
38.7814,0.849362
38.8144,0.849198
38.8474,0.849034
38.8804,0.848868
38.9135,0.848702
38.9465,0.848534
38.9795,0.848366
39.0125,0.848196
39.0455,0.848026
39.0785,0.847855
39.1115,0.847683
39.1445,0.84751
39.1775,0.847336
39.2105,0.847161
39.2435,0.846985
39.2765,0.846808
39.3095,0.84663
39.3425,0.846451
39.3755,0.846271
39.4085,0.84609
39.4415,0.845908
39.4745,0.845725
39.5075,0.845541
39.5406,0.845357
39.5736,0.845171
39.6066,0.844984
39.6396,0.844797
39.6726,0.844609
39.7056,0.84442
39.7386,0.844231
39.7716,0.84404
39.8046,0.84385
39.8376,0.843658
39.8706,0.843466
39.9036,0.843273
39.9366,0.843079
39.9696,0.842884
40.0026,0.842689
40.0356,0.842494
40.0686,0.842298
40.1016,0.842101
40.1347,0.841904
40.1677,0.841706
40.2007,0.841507
40.2337,0.841309
40.2667,0.841112
40.2997,0.840918
40.3327,0.840732
40.3657,0.84055
40.3987,0.84037
40.4317,0.840191
40.4647,0.840014
40.4977,0.839837
40.5307,0.839662
40.5637,0.839486
40.5967,0.839312
40.6297,0.839137
40.6627,0.838963
40.6957,0.838789
40.7288,0.838616
40.7618,0.838443
40.7948,0.83827
40.8278,0.838097
40.8608,0.837925
40.8938,0.837753
40.9268,0.837581
40.9598,0.837409
40.9928,0.837237
41.0258,0.837066
41.0588,0.836894
41.0918,0.836722
41.1248,0.836551
41.1578,0.836379
41.1908,0.836207
41.2238,0.836035
41.2568,0.835864
41.2898,0.835693
41.3228,0.835521
41.3559,0.835349
41.3889,0.835177
41.4219,0.835005
41.4549,0.834832
41.4879,0.834659
41.5209,0.834487
41.5539,0.834313
41.5869,0.83414
41.6199,0.833967
41.6529,0.833793
41.6859,0.833619
41.7189,0.833444
41.7519,0.833269
41.7849,0.833094
41.8179,0.832919
41.8509,0.832743
41.8839,0.832568
41.9169,0.832391
41.95,0.832214
41.983,0.832038
42.016,0.831861
42.049,0.831684
42.082,0.831506
42.115,0.831327
42.148,0.831149
42.181,0.83097
42.214,0.830791
42.247,0.830611
42.28,0.830431
42.313,0.830251
42.346,0.83007
42.379,0.829888
42.412,0.829705
42.445,0.829523
42.478,0.82934
42.511,0.829156
42.5441,0.828973
42.5771,0.828789
42.6101,0.828604
42.6431,0.828419
42.6761,0.828233
42.7091,0.828047
42.7421,0.82786
42.7751,0.827672
42.8081,0.827484
42.8411,0.827297
42.8741,0.827109
42.9071,0.82692
42.9401,0.82673
42.9731,0.82654
43.0061,0.82635
43.0391,0.826159
43.0721,0.825967
43.1051,0.825774
43.1382,0.825582
43.1712,0.825388
43.2042,0.825194
43.2372,0.824999
43.2702,0.824804
43.3032,0.824608
43.3362,0.824412
43.3692,0.824215
43.4022,0.824018
43.4352,0.82382
43.4682,0.823622
43.5012,0.823423
43.5342,0.823224
43.5672,0.823024
43.6002,0.822823
43.6332,0.822621
43.6662,0.822419
43.6992,0.822217
43.7322,0.822015
43.7653,0.821811
43.7983,0.821608
43.8313,0.821404
43.8643,0.8212
43.8973,0.820996
43.9303,0.820791
43.9633,0.820586
43.9963,0.820379
44.0293,0.820173
44.0623,0.819965
44.0953,0.819757
44.1283,0.819549
44.1613,0.81934
44.1943,0.819131
44.2273,0.818921
44.2603,0.818711
44.2933,0.818499
44.3263,0.818287
44.3594,0.818074
44.3924,0.817862
44.4254,0.817648
44.4584,0.817434
44.4914,0.817219
44.5244,0.817004
44.5574,0.816788
44.5904,0.816571
44.6234,0.816353
44.6564,0.816133
44.6894,0.815913
44.7224,0.815692
44.7554,0.815469
44.7884,0.815246
44.8214,0.815022
44.8544,0.814796
44.8874,0.81457
44.9204,0.814342
44.9535,0.814113
44.9865,0.813884
45.0195,0.813653
45.0525,0.813424
45.0855,0.813196
45.1185,0.812969
45.1515,0.81274
45.1845,0.81251
45.2175,0.81228
45.2505,0.812049
45.2835,0.811817
45.3165,0.811585
45.3495,0.811351
45.3825,0.811117
45.4155,0.810881
45.4485,0.810645
45.4815,0.810407
45.5145,0.810168
45.5476,0.809927
45.5806,0.809686
45.6136,0.809444
45.6466,0.809201
45.6796,0.808957
45.7126,0.808713
45.7456,0.808466
45.7786,0.808219
45.8116,0.807971
45.8446,0.807721
45.8776,0.80747
45.9106,0.807217
45.9436,0.806964
45.9766,0.806709
46.0096,0.806452
46.0426,0.806195
46.0756,0.805935
46.1086,0.805674
46.1416,0.805412
46.1747,0.805148
46.2077,0.804883
46.2407,0.804617
46.2737,0.804349
46.3067,0.804079
46.3397,0.803808
46.3727,0.803535
46.4057,0.803261
46.4387,0.802985
46.4717,0.802707
46.5047,0.802427
46.5377,0.802146
46.5707,0.801863
46.6037,0.801578
46.6367,0.801292
46.6697,0.801004
46.7027,0.800714
46.7357,0.800423
46.7688,0.80013
46.8018,0.799834
46.8348,0.799537
46.8678,0.799238
46.9008,0.798936
46.9338,0.798633
46.9668,0.798327
46.9998,0.79802
47.0328,0.797711
47.0658,0.7974
47.0988,0.797087
47.1318,0.796771
47.1648,0.796454
47.1978,0.796135
47.2308,0.795813
47.2638,0.795489
47.2968,0.795163
47.3298,0.794834
47.3629,0.794504
47.3959,0.794171
47.4289,0.793835
47.4619,0.793497
47.4949,0.793156
47.5279,0.792813
47.5609,0.792467
47.5939,0.792119
47.6269,0.791768
47.6599,0.791414
47.6929,0.791057
47.7259,0.790698
47.7589,0.790336
47.7919,0.789972
47.8249,0.789604
47.8579,0.789234
47.8909,0.788861
47.9239,0.788485
47.9569,0.788105
47.99,0.787723
48.0052,0.787546