File: smoothed_normalized_data/30.0mA2msec-0.2mA8msec.csv
Capacity_mAh,Voltage_V
0.0,1.0
0.0521888,0.998327
0.104378,0.996675
0.156566,0.995044
0.208755,0.993433
0.260944,0.991844
0.313133,0.990275
0.365321,0.988726
0.41751,0.987198
0.469699,0.98569
0.521888,0.984202
0.574076,0.982734
0.626265,0.981285
0.678454,0.979857
0.730643,0.978448
0.782831,0.977058
0.83502,0.975687
0.887209,0.974336
0.939398,0.973004
0.991586,0.97169
1.04378,0.970396
1.09596,0.96912
1.14815,0.967862
1.20034,0.966623
1.25253,0.965402
1.30472,0.964199
1.35691,0.963015
1.4091,0.961848
1.46129,0.960699
1.51347,0.959567
1.56566,0.958453
1.61785,0.957356
1.67004,0.956276
1.72223,0.955214
1.77442,0.954168
1.82661,0.95314
1.8788,0.952127
1.93098,0.951132
1.98317,0.950153
2.03536,0.94919
2.08755,0.948244
2.13974,0.947313
2.19193,0.946398
2.24412,0.945499
2.29631,0.944616
2.34849,0.943749
2.40068,0.942896
2.45287,0.942059
2.50506,0.941237
2.55725,0.940431
2.60944,0.939639
2.66163,0.938861
2.71382,0.938099
2.766,0.937351
2.81819,0.936617
2.87038,0.935897
2.92257,0.935192
2.97476,0.934501
3.02695,0.933823
3.07914,0.933159
3.13133,0.932509
3.18351,0.931872
3.2357,0.931249
3.28789,0.930638
3.34008,0.930041
3.39227,0.929457
3.44446,0.928885
3.49665,0.928327
3.54884,0.92778
3.60102,0.927247
3.65321,0.926725
3.7054,0.926216
3.75759,0.925718
3.80978,0.925233
3.86197,0.924759
3.91416,0.924297
3.96635,0.923847
4.01853,0.923408
4.07072,0.92298
4.12291,0.922563
4.1751,0.922158
4.22729,0.921763
4.27948,0.921379
4.33167,0.921006
4.38386,0.920643
4.43604,0.92029
4.48823,0.919948
4.54042,0.919615
4.59261,0.919293
4.6448,0.918981
4.69699,0.918678
4.74918,0.918385
4.80137,0.918101
4.85355,0.917827
4.90574,0.917561
4.95793,0.917305
5.01012,0.917058
5.06231,0.91682
5.1145,0.91659
5.16669,0.916369
5.21888,0.916156
5.27106,0.915951
5.32325,0.915755
5.37544,0.915567
5.42763,0.915386
5.47982,0.915214
5.53201,0.915049
5.5842,0.914891
5.63639,0.914741
5.68857,0.914598
5.74076,0.914463
5.79295,0.914334
5.84514,0.914212
5.89733,0.914097
5.94952,0.913989
6.00171,0.913887
6.0539,0.913791
6.10608,0.913701
6.15827,0.913618
6.21046,0.913541
6.26265,0.913469
6.31484,0.913403
6.36703,0.913343
6.41922,0.913288
6.47141,0.913238
6.52359,0.913194
6.57578,0.913155
6.62797,0.91312
6.68016,0.913361
6.73235,0.913519
6.78454,0.91363
6.83673,0.913715
6.88892,0.913781
6.9411,0.913828
6.99329,0.913865
7.04548,0.913891
7.09767,0.913908
7.14986,0.913918
7.20205,0.913918
7.25424,0.913914
7.30643,0.913906
7.35861,0.913892
7.4108,0.913874
7.46299,0.913846
7.51518,0.913812
7.56737,0.913778
7.61956,0.91374
7.67175,0.913697
7.72394,0.913652
7.77612,0.913603
7.82831,0.91355
7.8805,0.913497
7.93269,0.913443
7.98488,0.913388
8.03707,0.913332
8.08926,0.913274
8.14145,0.913216
8.19363,0.913157
8.24582,0.913097
8.29801,0.913038
8.3502,0.91298
8.40239,0.912923
8.45458,0.912865
8.50677,0.912809
8.55896,0.912753
8.61114,0.912698
8.66333,0.912646
8.71552,0.912593
8.76771,0.91254
8.8199,0.912489
8.87209,0.912438
8.92428,0.91239
8.97647,0.912343
9.02865,0.912296
9.08084,0.912251
9.13303,0.912206
9.18522,0.912163
9.23741,0.912121
9.2896,0.912081
9.34179,0.912043
9.39398,0.912005
9.44616,0.911969
9.49835,0.911933
9.55054,0.911899
9.60273,0.911866
9.65492,0.911834
9.70711,0.911804
9.7593,0.911775
9.81149,0.911746
9.86367,0.911719
9.91586,0.911693
9.96805,0.911668
10.0202,0.911643
10.0724,0.911619
10.1246,0.911597
10.1768,0.911575
10.229,0.911555
10.2812,0.911534
10.3334,0.911515
10.3856,0.911496
10.4378,0.911478
10.4899,0.911461
10.5421,0.911444
10.5943,0.911428
10.6465,0.91141
10.6987,0.911393
10.7509,0.911376
10.8031,0.91136
10.8553,0.911344
10.9074,0.911328
10.9596,0.911312
11.0118,0.911295
11.064,0.911279
11.1162,0.911262
11.1684,0.911246
11.2206,0.91123
11.2728,0.911214
11.325,0.911199
11.3771,0.911184
11.4293,0.911169
11.4815,0.911155
11.5337,0.911141
11.5859,0.911127
11.6381,0.911113
11.6903,0.911099
11.7425,0.911085
11.7947,0.91107
11.8468,0.911054
11.899,0.91104
11.9512,0.911025
12.0034,0.91101
12.0556,0.910995
12.1078,0.91098
12.16,0.910966
12.2122,0.910952
12.2644,0.910939
12.3165,0.910927
12.3687,0.910915
12.4209,0.910903
12.4731,0.910892
12.5253,0.910882
12.5775,0.910872
12.6297,0.910864
12.6819,0.910855
12.7341,0.910847
12.7862,0.910839
12.8384,0.91083
12.8906,0.910821
12.9428,0.910813
12.995,0.910805
13.0472,0.910797
13.0994,0.91079
13.1516,0.910783
13.2038,0.910776
13.2559,0.910769
13.3081,0.910761
13.3603,0.910754
13.4125,0.910748
13.4647,0.910742
13.5169,0.910736
13.5691,0.91073
13.6213,0.910725
13.6735,0.91072
13.7256,0.910715
13.7778,0.910709
13.83,0.910703
13.8822,0.910697
13.9344,0.910691
13.9866,0.910684
14.0388,0.910676
14.091,0.910668
14.1432,0.91066
14.1953,0.910653
14.2475,0.910646
14.2997,0.91064
14.3519,0.910634
14.4041,0.910627
14.4563,0.910619
14.5085,0.910612
14.5607,0.910605
14.6129,0.910598
14.665,0.910589
14.7172,0.910578
14.7694,0.910568
14.8216,0.910558
14.8738,0.910549
14.926,0.910539
14.9782,0.910528
15.0304,0.910516
15.0826,0.910504
15.1347,0.910495
15.1869,0.910485
15.2391,0.910477
15.2913,0.910468
15.3435,0.910458
15.3957,0.910446
15.4479,0.910433
15.5001,0.910419
15.5522,0.910404
15.6044,0.910389
15.6566,0.910378
15.7088,0.910367
15.761,0.910356
15.8132,0.910343
15.8654,0.910328
15.9176,0.910312
15.9698,0.910296
16.0219,0.91028
16.0741,0.910265
16.1263,0.91025
16.1785,0.910236
16.2307,0.910221
16.2829,0.910205
16.3351,0.910189
16.3873,0.910172
16.4395,0.910154
16.4916,0.910135
16.5438,0.910114
16.596,0.910093
16.6482,0.910072
16.7004,0.91005
16.7526,0.910028
16.8048,0.910005
16.857,0.909983
16.9092,0.909962
16.9613,0.909941
17.0135,0.909919
17.0657,0.909899
17.1179,0.909879
17.1701,0.909855
17.2223,0.90983
17.2745,0.909805
17.3267,0.909778
17.3789,0.90975
17.431,0.909724
17.4832,0.909697
17.5354,0.909671
17.5876,0.909646
17.6398,0.909623
17.692,0.9096
17.7442,0.909573
17.7964,0.909545
17.8486,0.909515
17.9007,0.909486
17.9529,0.909457
18.0051,0.909427
18.0573,0.909397
18.1095,0.909368
18.1617,0.909338
18.2139,0.909307
18.2661,0.909274
18.3183,0.909239
18.3704,0.909205
18.4226,0.90917
18.4748,0.909137
18.527,0.909104
18.5792,0.909072
18.6314,0.909038
18.6836,0.909004
18.7358,0.90897
18.788,0.908934
18.8401,0.908897
18.8923,0.90886
18.9445,0.908823
18.9967,0.908785
19.0489,0.908746
19.1011,0.908706
19.1533,0.908666
19.2055,0.908625
19.2577,0.908583
19.3098,0.90854
19.362,0.908499
19.4142,0.908458
19.4664,0.908418
19.5186,0.908377
19.5708,0.908336
19.623,0.908296
19.6752,0.908254
19.7273,0.90821
19.7795,0.908166
19.8317,0.908123
19.8839,0.90808
19.9361,0.908037
19.9883,0.907994
20.0405,0.907949
20.0927,0.907903
20.1449,0.907855
20.197,0.907803
20.2492,0.907752
20.3014,0.907701
20.3536,0.907653
20.4058,0.907605
20.458,0.907559
20.5102,0.907512
20.5624,0.907464
20.6146,0.907417
20.6667,0.907369
20.7189,0.907322
20.7711,0.907275
20.8233,0.907227
20.8755,0.907179
20.9277,0.907132
20.9799,0.907084
21.0321,0.907034
21.0843,0.906985
21.1364,0.906935
21.1886,0.906884
21.2408,0.906832
21.293,0.906782
21.3452,0.906731
21.3974,0.906681
21.4496,0.90663
21.5018,0.906579
21.554,0.906528
21.6061,0.906476
21.6583,0.906425
21.7105,0.906373
21.7627,0.906323
21.8149,0.906272
21.8671,0.906222
21.9193,0.906171
21.9715,0.906121
22.0237,0.906072
22.0758,0.906023
22.128,0.905974
22.1802,0.905925
22.2324,0.905877
22.2846,0.905829
22.3368,0.905781
22.389,0.905734
22.4412,0.905687
22.4934,0.905641
22.5455,0.905595
22.5977,0.905549
22.6499,0.905503
22.7021,0.905457
22.7543,0.905411
22.8065,0.905366
22.8587,0.90532
22.9109,0.905274
22.9631,0.905228
23.0152,0.905182
23.0674,0.905136
23.1196,0.90509
23.1718,0.905044
23.224,0.904997
23.2762,0.904952
23.3284,0.904905
23.3806,0.904859
23.4328,0.904813
23.4849,0.904767
23.5371,0.904721
23.5893,0.904674
23.6415,0.904628
23.6937,0.904581
23.7459,0.904534
23.7981,0.904487
23.8503,0.90444
23.9024,0.904393
23.9546,0.904347
24.0068,0.904301
24.059,0.904255
24.1112,0.904209
24.1634,0.904163
24.2156,0.904118
24.2678,0.904073
24.32,0.904028
24.3721,0.903983
24.4243,0.903937
24.4765,0.903893
24.5287,0.903848
24.5809,0.903804
24.6331,0.90376
24.6853,0.903715
24.7375,0.90367
24.7897,0.903626
24.8418,0.903581
24.894,0.903537
24.9462,0.903494
24.9984,0.903452
25.0506,0.90341
25.1028,0.903367
25.155,0.903326
25.2072,0.903284
25.2594,0.903244
25.3115,0.903205
25.3637,0.903167
25.4159,0.903128
25.4681,0.90309
25.5203,0.90305
25.5725,0.90301
25.6247,0.90297
25.6769,0.902929
25.7291,0.902888
25.7812,0.902848
25.8334,0.902806
25.8856,0.902764
25.9378,0.902722
25.99,0.90268
26.0422,0.902638
26.0944,0.902596
26.1466,0.902553
26.1988,0.902511
26.2509,0.902469
26.3031,0.902427
26.3553,0.902383
26.4075,0.90234
26.4597,0.902297
26.5119,0.902253
26.5641,0.902209
26.6163,0.902164
26.6685,0.902119
26.7206,0.902076
26.7728,0.902033
26.825,0.90199
26.8772,0.901946
26.9294,0.901903
26.9816,0.901859
27.0338,0.901815
27.086,0.90177
27.1382,0.901726
27.1903,0.901682
27.2425,0.901638
27.2947,0.901595
27.3469,0.901553
27.3991,0.90151
27.4513,0.901467
27.5035,0.901425
27.5557,0.901382
27.6079,0.90134
27.66,0.901297
27.7122,0.901255
27.7644,0.901212
27.8166,0.901169
27.8688,0.901124
27.921,0.90108
27.9732,0.901034
28.0254,0.900988
28.0776,0.900942
28.1297,0.900896
28.1819,0.900849
28.2341,0.900801
28.2863,0.900752
28.3385,0.900703
28.3907,0.900654
28.4429,0.900605
28.4951,0.900556
28.5472,0.900506
28.5994,0.900455
28.6516,0.900406
28.7038,0.900356
28.756,0.900307
28.8082,0.900258
28.8604,0.900208
28.9126,0.900158
28.9648,0.900107
29.0169,0.900055
29.0691,0.900004
29.1213,0.899952
29.1735,0.899901
29.2257,0.899849
29.2779,0.899798
29.3301,0.899747
29.3823,0.899695
29.4345,0.899643
29.4866,0.899592
29.5388,0.89954
29.591,0.899488
29.6432,0.899437
29.6954,0.899385
29.7476,0.899333
29.7998,0.899282
29.852,0.899232
29.9042,0.899181
29.9563,0.89913
30.0085,0.89908
30.0607,0.899031
30.1129,0.898982
30.1651,0.898932
30.2173,0.898881
30.2695,0.898831
30.3217,0.898779
30.3739,0.898726
30.426,0.898674
30.4782,0.898622
30.5304,0.898571
30.5826,0.89852
30.6348,0.89847
30.687,0.898418
30.7392,0.898368
30.7914,0.898316
30.8436,0.898263
30.8957,0.89821
30.9479,0.898156
31.0001,0.898102
31.0523,0.898047
31.1045,0.897991
31.1567,0.897935
31.2089,0.897879
31.2611,0.897823
31.3133,0.897767
31.3654,0.897711
31.4176,0.897654
31.4698,0.897596
31.522,0.897538
31.5742,0.89748
31.6264,0.897422
31.6786,0.897364
31.7308,0.897306
31.783,0.897247
31.8351,0.897189
31.8873,0.89713
31.9395,0.897071
31.9917,0.897012
32.0439,0.896952
32.0961,0.896892
32.1483,0.896832
32.2005,0.896771
32.2527,0.896712
32.3048,0.896652
32.357,0.896591
32.4092,0.896531
32.4614,0.89647
32.5136,0.896408
32.5658,0.896347
32.618,0.896286
32.6702,0.896224
32.7223,0.896163
32.7745,0.896101
32.8267,0.89604
32.8789,0.895978
32.9311,0.895917
32.9833,0.895856
33.0355,0.895795
33.0877,0.895735
33.1399,0.895675
33.192,0.895614
33.2442,0.895553
33.2964,0.895493
33.3486,0.895433
33.4008,0.895374
33.453,0.895314
33.5052,0.895254
33.5574,0.895194
33.6096,0.895134
33.6617,0.895074
33.7139,0.895014
33.7661,0.894954
33.8183,0.894893
33.8705,0.894833
33.9227,0.894772
33.9749,0.89471
34.0271,0.894648
34.0793,0.894586
34.1314,0.894524
34.1836,0.894462
34.2358,0.894401
34.288,0.894339
34.3402,0.894278
34.3924,0.894217
34.4446,0.894155
34.4968,0.894093
34.549,0.894031
34.6011,0.893968
34.6533,0.893905
34.7055,0.893842
34.7577,0.893779
34.8099,0.893716
34.8621,0.893653
34.9143,0.893589
34.9665,0.893526
35.0187,0.893463
35.0708,0.893399
35.123,0.893335
35.1752,0.893271
35.2274,0.893207
35.2796,0.893144
35.3318,0.893081
35.384,0.893018
35.4362,0.892954
35.4884,0.892891
35.5405,0.892828
35.5927,0.892765
35.6449,0.892702
35.6971,0.892639
35.7493,0.892576
35.8015,0.892514
35.8537,0.892451
35.9059,0.892389
35.9581,0.892327
36.0102,0.892264
36.0624,0.892202
36.1146,0.892139
36.1668,0.892077
36.219,0.892015
36.2712,0.891953
36.3234,0.891891
36.3756,0.89183
36.4278,0.891769
36.4799,0.891709
36.5321,0.891649
36.5843,0.891588
36.6365,0.891528
36.6887,0.891467
36.7409,0.891407
36.7931,0.891345
36.8453,0.891284
36.8974,0.891223
36.9496,0.891161
37.0018,0.891099
37.054,0.891037
37.1062,0.890974
37.1584,0.890911
37.2106,0.890847
37.2628,0.890783
37.315,0.890719
37.3671,0.890654
37.4193,0.890589
37.4715,0.890523
37.5237,0.890457
37.5759,0.890392
37.6281,0.890327
37.6803,0.89026
37.7325,0.890193
37.7847,0.890126
37.8368,0.890058
37.889,0.88999
37.9412,0.889922
37.9934,0.889854
38.0456,0.889785
38.0978,0.889717
38.15,0.889647
38.2022,0.889577
38.2544,0.889507
38.3065,0.889438
38.3587,0.889368
38.4109,0.889299
38.4631,0.889229
38.5153,0.889159
38.5675,0.889088
38.6197,0.889016
38.6719,0.888944
38.7241,0.888872
38.7762,0.8888
38.8284,0.888727
38.8806,0.888654
38.9328,0.888581
38.985,0.88851
39.0372,0.888437
39.0894,0.888365
39.1416,0.888292
39.1938,0.888219
39.2459,0.888146
39.2981,0.888073
39.3503,0.888
39.4025,0.887926
39.4547,0.887853
39.5069,0.887779
39.5591,0.887705
39.6113,0.88763
39.6635,0.887554
39.7156,0.887479
39.7678,0.887404
39.82,0.887329
39.8722,0.887253
39.9244,0.887177
39.9766,0.8871
40.0288,0.887023
40.081,0.886945
40.1332,0.886868
40.1853,0.886791
40.2375,0.886714
40.2897,0.886636
40.3419,0.886558
40.3941,0.88648
40.4463,0.886402
40.4985,0.886323
40.5507,0.886243
40.6029,0.886163
40.655,0.886084
40.7072,0.886005
40.7594,0.885926
40.8116,0.885847
40.8638,0.885767
40.916,0.885686
40.9682,0.885606
41.0204,0.885524
41.0726,0.885443
41.1247,0.885362
41.1769,0.88528
41.2291,0.885198
41.2813,0.885117
41.3335,0.885035
41.3857,0.884952
41.4379,0.884869
41.4901,0.884786
41.5422,0.884703
41.5944,0.88462
41.6466,0.884535
41.6988,0.884451
41.751,0.884365
41.8032,0.88428
41.8554,0.884195
41.9076,0.884109
41.9598,0.884024
42.0119,0.883939
42.0641,0.883853
42.1163,0.883768
42.1685,0.883683
42.2207,0.883597
42.2729,0.883512
42.3251,0.883427
42.3773,0.883342
42.4295,0.883257
42.4816,0.883172
42.5338,0.883086
42.586,0.883001
42.6382,0.882915
42.6904,0.882829
42.7426,0.882743
42.7948,0.882657
42.847,0.882571
42.8992,0.882484
42.9513,0.882398
43.0035,0.882311
43.0557,0.882225
43.1079,0.882138
43.1601,0.882052
43.2123,0.881965
43.2645,0.881879
43.3167,0.881792
43.3689,0.881705
43.421,0.881618
43.4732,0.881532
43.5254,0.881446
43.5776,0.88136
43.6298,0.881275
43.682,0.881189
43.7342,0.881104
43.7864,0.881019
43.8386,0.880935
43.8907,0.880849
43.9429,0.880764
43.9951,0.880678
44.0473,0.880592
44.0995,0.880507
44.1517,0.880422
44.2039,0.880337
44.2561,0.880251
44.3083,0.880166
44.3604,0.880081
44.4126,0.879996
44.4648,0.879911
44.517,0.879825
44.5692,0.879739
44.6214,0.879651
44.6736,0.879564
44.7258,0.879477
44.778,0.87939
44.8301,0.879303
44.8823,0.879215
44.9345,0.879127
44.9867,0.879039
45.0389,0.878951
45.0911,0.878862
45.1433,0.878774
45.1955,0.878684
45.2477,0.878595
45.2998,0.878506
45.352,0.878417
45.4042,0.878328
45.4564,0.878238
45.5086,0.878148
45.5608,0.878059
45.613,0.877969
45.6652,0.877879
45.7173,0.87779
45.7695,0.8777
45.8217,0.877612
45.8739,0.877523
45.9261,0.877434
45.9783,0.877345
46.0305,0.877256
46.0827,0.877167
46.1349,0.877079
46.187,0.876989
46.2392,0.8769
46.2914,0.876812
46.3436,0.876723
46.3958,0.876635
46.448,0.876547
46.5002,0.876458
46.5524,0.87637
46.6046,0.876282
46.6567,0.876194
46.7089,0.876106
46.7611,0.876019
46.8133,0.875932
46.8655,0.875845
46.9177,0.875758
46.9699,0.875671
47.0221,0.875584
47.0743,0.875497
47.1264,0.87541
47.1786,0.875322
47.2308,0.875234
47.283,0.875145
47.3352,0.875056
47.3874,0.874967
47.4396,0.874878
47.4918,0.874788
47.544,0.874699
47.5961,0.874609
47.6483,0.874519
47.7005,0.874429
47.7527,0.874338
47.8049,0.874248
47.8571,0.874157
47.9093,0.874065
47.9615,0.873974
48.0137,0.873883
48.0658,0.873791
48.118,0.873699
48.1702,0.873608
48.2224,0.873516
48.2746,0.873424
48.3268,0.873331
48.379,0.873239
48.4312,0.873147
48.4834,0.873055
48.5355,0.872962
48.5877,0.872869
48.6399,0.872777
48.6921,0.872684
48.7443,0.872591
48.7965,0.872498
48.8487,0.872405
48.9009,0.872311
48.9531,0.872217
49.0052,0.872122
49.0574,0.872026
49.1096,0.871932
49.1618,0.871837
49.214,0.87174
49.2662,0.871644
49.3184,0.871548
49.3706,0.871452
49.4228,0.871357
49.4749,0.871262
49.5271,0.871167
49.5793,0.871071
49.6315,0.870977
49.6837,0.870883
49.7359,0.870788
49.7881,0.870694
49.8403,0.870599
49.8925,0.870504
49.9446,0.870407
49.9968,0.87031
50.049,0.870212
50.1012,0.870114
50.1534,0.870016
50.2056,0.869917
50.2578,0.869817
50.31,0.869718
50.3621,0.869617
50.4143,0.869517
50.4665,0.869415
50.5187,0.869314
50.5709,0.869212
50.6231,0.869109
50.6753,0.869006
50.7275,0.868902
50.7797,0.868798
50.8318,0.868693
50.884,0.868588
50.9362,0.868484
50.9884,0.868378
51.0406,0.868272
51.0928,0.868166
51.145,0.868058
51.1972,0.86795
51.2494,0.867842
51.3015,0.867733
51.3537,0.867623
51.4059,0.867513
51.4581,0.867402
51.5103,0.867292
51.5625,0.867181
51.6147,0.867069
51.6669,0.866956
51.7191,0.866843
51.7712,0.86673
51.8234,0.866615
51.8756,0.866501
51.9278,0.866388
51.98,0.866273
52.0322,0.866159
52.0844,0.866045
52.1366,0.865931
52.1888,0.865816
52.2409,0.865701
52.2931,0.865586
52.3453,0.865471
52.3975,0.865355
52.4497,0.865239
52.5019,0.865123
52.5541,0.865007
52.6063,0.864892
52.6585,0.864776
52.7106,0.86466
52.7628,0.864543
52.815,0.864427
52.8672,0.864311
52.9194,0.864195
52.9716,0.864079
53.0238,0.863963
53.076,0.863846
53.1282,0.863728
53.1803,0.86361
53.2325,0.863492
53.2847,0.863373
53.3369,0.863254
53.3891,0.863135
53.4413,0.863015
53.4935,0.862895
53.5457,0.862774
53.5979,0.862653
53.65,0.862532
53.7022,0.86241
53.7544,0.862288
53.8066,0.862166
53.8588,0.862043
53.911,0.861919
53.9632,0.861794
54.0154,0.861669
54.0676,0.861543
54.1197,0.861417
54.1719,0.861291
54.2241,0.861163
54.2763,0.861036
54.3285,0.860909
54.3807,0.86078
54.4329,0.860653
54.4851,0.860525
54.5372,0.860397
54.5894,0.860269
54.6416,0.860141
54.6938,0.860012
54.746,0.859883
54.7982,0.859754
54.8504,0.859626
54.9026,0.859497
54.9548,0.859369
55.0069,0.85924
55.0591,0.859112
55.1113,0.858983
55.1635,0.858854
55.2157,0.858726
55.2679,0.858597
55.3201,0.858469
55.3723,0.858341
55.4245,0.858212
55.4766,0.858084
55.5288,0.857955
55.581,0.857826
55.6332,0.857697
55.6854,0.857569
55.7376,0.85744
55.7898,0.857312
55.842,0.857183
55.8942,0.857055
55.9463,0.856927
55.9985,0.856799
56.0507,0.856671
56.1029,0.856543
56.1551,0.856414
56.2073,0.856286
56.2595,0.856158
56.3117,0.85603
56.3639,0.855903
56.416,0.855775
56.4682,0.855647
56.5204,0.855519
56.5726,0.855391
56.6248,0.855261
56.677,0.855132
56.7292,0.855003
56.7814,0.854874
56.8336,0.854745
56.8857,0.854615
56.9379,0.854485
56.9901,0.854355
57.0423,0.854224
57.0945,0.854092
57.1467,0.853959
57.1989,0.853827
57.2511,0.853694
57.3033,0.853561
57.3554,0.853428
57.4076,0.853294
57.4598,0.853159
57.512,0.853022
57.5642,0.852886
57.6164,0.852749
57.6686,0.852612
57.7208,0.852475
57.773,0.852337
57.8251,0.852199
57.8773,0.852062
57.9295,0.851924
57.9817,0.851786
58.0339,0.851647
58.0861,0.851509
58.1383,0.851371
58.1905,0.851233
58.2427,0.851094
58.2948,0.850955
58.347,0.850816
58.3992,0.850677
58.4514,0.850537
58.5036,0.850397
58.5558,0.850257
58.608,0.850117
58.6602,0.849977
58.7123,0.849837
58.7645,0.849696
58.8167,0.849555
58.8689,0.849414
58.9211,0.849274
58.9733,0.849133
59.0255,0.848991
59.0777,0.84885
59.1299,0.848708
59.182,0.848566
59.2342,0.848425
59.2864,0.848284
59.3386,0.848143
59.3908,0.848003
59.443,0.847862
59.4952,0.847721
59.5474,0.84758
59.5996,0.84744
59.6517,0.847299
59.7039,0.847158
59.7561,0.847016
59.8083,0.846875
59.8605,0.846733
59.9127,0.846591
59.9649,0.846449
60.0171,0.846304
60.0693,0.846159
60.1214,0.846014
60.1736,0.845868
60.2258,0.845721
60.278,0.845573
60.3302,0.845425
60.3824,0.845276
60.4346,0.845127
60.4868,0.844979
60.539,0.844829
60.5911,0.844679
60.6433,0.84453
60.6955,0.84438
60.7477,0.844229
60.7999,0.844079
60.8521,0.843928
60.9043,0.843776
60.9565,0.843625
61.0087,0.843473
61.0608,0.843322
61.113,0.843171
61.1652,0.843019
61.2174,0.842867
61.2696,0.842713
61.3218,0.84256
61.374,0.842408
61.4262,0.842255
61.4784,0.842101
61.5305,0.841947
61.5827,0.841793
61.6349,0.84164
61.6871,0.841486
61.7393,0.841332
61.7915,0.841178
61.8437,0.841024
61.8959,0.84087
61.9481,0.840715
62.0002,0.84056
62.0524,0.840405
62.1046,0.84025
62.1568,0.840094
62.209,0.839938
62.2612,0.839782
62.3134,0.839626
62.3656,0.83947
62.4178,0.839312
62.4699,0.839154
62.5221,0.838995
62.5743,0.838836
62.6265,0.838677
62.6787,0.838515
62.7309,0.838353
62.7831,0.83819
62.8353,0.838027
62.8875,0.837862
62.9396,0.837695
62.9918,0.837527
63.044,0.837357
63.0962,0.837186
63.1484,0.837015
63.2006,0.836843
63.2528,0.836671
63.305,0.836498
63.3571,0.836324
63.4093,0.83615
63.4615,0.835975
63.5137,0.8358
63.5659,0.835624
63.6181,0.835448
63.6703,0.835272
63.7225,0.835095
63.7747,0.834918
63.8268,0.834742
63.879,0.834565
63.9312,0.834388
63.9834,0.834211
64.0356,0.834034
64.0878,0.833856
64.14,0.833678
64.1922,0.8335
64.2444,0.833321
64.2965,0.833142
64.3487,0.832962
64.4009,0.832782
64.4531,0.832602
64.5053,0.832421
64.5575,0.83224
64.6097,0.832059
64.6619,0.831877
64.7141,0.831695
64.7662,0.831512
64.8184,0.831328
64.8706,0.831145
64.9228,0.830961
64.975,0.830777
65.0272,0.830592
65.0794,0.830407
65.1316,0.830221
65.1838,0.830034
65.2359,0.829847
65.2881,0.829658
65.3403,0.829469
65.3925,0.82928
65.4447,0.829091
65.4969,0.8289
65.5491,0.828709
65.6013,0.828517
65.6535,0.828324
65.7056,0.828131
65.7578,0.827938
65.81,0.827743
65.8622,0.827547
65.9144,0.82735
65.9666,0.827152
66.0188,0.826954
66.071,0.826754
66.1232,0.826554
66.1753,0.826353
66.2275,0.826152
66.2797,0.82595
66.3319,0.825747
66.3841,0.825544
66.4363,0.825341
66.4885,0.825137
66.5407,0.824933
66.5929,0.824727
66.645,0.824522
66.6972,0.824317
66.7494,0.824111
66.8016,0.823905
66.8538,0.823699
66.906,0.823493
66.9582,0.823286
67.0104,0.823079
67.0626,0.822871
67.1147,0.822663
67.1669,0.822455
67.2191,0.822246
67.2713,0.822036
67.3235,0.821825
67.3757,0.821613
67.4279,0.8214
67.4801,0.821188
67.5322,0.820975
67.5844,0.82076
67.6366,0.820545
67.6888,0.820329
67.741,0.820112
67.7932,0.819896
67.8454,0.819677
67.8976,0.819458
67.9498,0.819238
68.0019,0.819018
68.0541,0.818797
68.1063,0.818575
68.1585,0.818351
68.2107,0.818127
68.2629,0.817902
68.3151,0.817676
68.3673,0.817449
68.4195,0.817221
68.4716,0.816991
68.5238,0.81676
68.576,0.816528
68.6282,0.816294
68.6804,0.816061
68.7326,0.815826
68.7848,0.815591
68.837,0.815355
68.8892,0.815117
68.9413,0.814878
68.9935,0.814638
69.0457,0.814397
69.0979,0.814155
69.1501,0.813912
69.2023,0.813667
69.2545,0.813422
69.3067,0.813176
69.3589,0.81293
69.411,0.812683
69.4632,0.812435
69.5154,0.812186
69.5676,0.811935
69.6198,0.811683
69.672,0.811429
69.7242,0.811175
69.7764,0.810919
69.8286,0.810662
69.8807,0.810403
69.9329,0.810144
69.9851,0.809883
70.0373,0.809621
70.0895,0.809357
70.1417,0.80909
70.1939,0.808822
70.2461,0.808551
70.2983,0.808279
70.3504,0.808004
70.4026,0.807727
70.4548,0.807448
70.507,0.807165
70.5592,0.80688
70.6114,0.806591
70.6636,0.8063
70.7158,0.806006
70.768,0.805709
70.8201,0.80541
70.8723,0.805107
70.9245,0.8048
70.9767,0.80449
71.0289,0.804177
71.0811,0.80386
71.1333,0.803541
71.1855,0.80322
71.2377,0.802895
71.2898,0.802569
71.342,0.802239
71.3942,0.801907
71.4464,0.801572
71.4986,0.801234
71.5508,0.800894
71.603,0.800552
71.6552,0.800208
71.7073,0.799861
71.7595,0.799513
71.8117,0.799162
71.8639,0.798809
71.9161,0.798455
71.9683,0.798098
72.0205,0.79774
72.0727,0.79738
72.1249,0.797018
72.177,0.796655
72.2292,0.79629
72.2814,0.795924
72.3336,0.795557
72.3858,0.795188
72.438,0.794817
72.4902,0.794445
72.5424,0.794072
72.5946,0.793698
72.6467,0.793321
72.6989,0.792944
72.7511,0.792566
72.8033,0.792186
72.8555,0.791806
72.9077,0.791424
72.9599,0.791042
73.0121,0.79066
73.0643,0.790277
73.1164,0.789893
73.1686,0.789508
73.2208,0.789122
73.273,0.788738
73.3252,0.788353
73.3774,0.787967
73.4296,0.787582
73.4818,0.787196
73.534,0.786811
73.5861,0.786426
73.6383,0.786042
73.6905,0.785658
73.7427,0.785275
73.7949,0.784893
73.8471,0.784512
73.8993,0.784132
73.9515,0.783755
74.0037,0.783379
74.0558,0.783036
74.108,0.782732
74.1602,0.782437
74.2124,0.782151
74.2646,0.781871
74.3168,0.781595
74.369,0.781323
74.4212,0.781055
74.4734,0.78079
74.5255,0.780529
74.5777,0.78027
74.6299,0.780014
74.6821,0.77976
74.7343,0.779509
74.7865,0.779259
74.8387,0.77901
74.8909,0.77876
74.9431,0.778512
74.9952,0.778265
75.0474,0.778019
75.0996,0.777772
75.1518,0.777527
75.204,0.777281
75.2562,0.777036
75.3084,0.776791
75.3606,0.776546
75.4128,0.7763
75.4649,0.776055
75.5171,0.775808
75.5693,0.775561
75.6215,0.775313
75.6737,0.775065
75.7259,0.774817
75.7781,0.774568
75.8303,0.774319
75.8825,0.774069
75.9346,0.773821
75.9868,0.773571
76.039,0.77332
76.0912,0.773067
76.1434,0.772813
76.1956,0.772557
76.2478,0.772298
76.3,0.772037
76.3521,0.771774
76.4043,0.771509
76.4565,0.771241
76.5087,0.77097
76.5609,0.770695
76.6131,0.770418
76.6653,0.770138
76.7175,0.769856
76.7697,0.76957
76.8218,0.769281
76.874,0.768989
76.9262,0.768694
76.9784,0.768395
77.0306,0.768092
77.0828,0.767787
77.135,0.767478
77.1872,0.767164
77.2394,0.766847
77.2915,0.766524
77.3437,0.766197
77.3959,0.765865
77.4481,0.765529
77.5003,0.765189
77.5414,0.764917