File: smoothed_normalized_data/30.0mA1msec-0.2mA29msec.csv
Capacity_mAh,Voltage_V
0.0,1.0
0.0580093,0.992873
0.116019,0.986185
0.174028,0.979919
0.232037,0.974062
0.290047,0.968598
0.348056,0.963513
0.406065,0.958792
0.464075,0.954421
0.522084,0.950384
0.580093,0.946667
0.638103,0.943255
0.696112,0.940133
0.754122,0.937287
0.812131,0.934702
0.87014,0.932363
0.92815,0.930255
0.986159,0.928364
1.04417,0.926674
1.10218,0.925171
1.16019,0.923841
1.2182,0.922669
1.27621,0.921639
1.33421,0.921033
1.39222,0.920287
1.45023,0.919489
1.50824,0.918673
1.56625,0.917866
1.62426,0.917086
1.68227,0.916335
1.74028,0.915617
1.79829,0.914928
1.8563,0.914275
1.91431,0.913646
1.97232,0.913047
2.03033,0.91248
2.08834,0.911939
2.14635,0.911434
2.20436,0.910954
2.26236,0.910494
2.32037,0.910058
2.37838,0.909645
2.43639,0.909259
2.4944,0.908896
2.55241,0.908561
2.61042,0.908248
2.66843,0.907956
2.72644,0.907681
2.78445,0.907421
2.84246,0.907174
2.90047,0.906931
2.95848,0.906705
3.01649,0.906498
3.0745,0.906313
3.1325,0.906151
3.19051,0.906006
3.24852,0.905873
3.30653,0.905751
3.36454,0.905633
3.42255,0.90553
3.48056,0.90544
3.53857,0.90536
3.59658,0.905287
3.65459,0.905217
3.7126,0.905158
3.77061,0.905106
3.82862,0.90506
3.88663,0.905015
3.94464,0.90497
4.00264,0.904922
4.06065,0.904877
4.11866,0.904831
4.17667,0.904781
4.23468,0.904738
4.29269,0.904697
4.3507,0.904652
4.40871,0.904604
4.46672,0.904554
4.52473,0.904508
4.58274,0.904464
4.64075,0.904425
4.69876,0.904381
4.75677,0.904328
4.81478,0.904283
4.87279,0.904242
4.93079,0.904203
4.9888,0.904164
5.04681,0.904124
5.10482,0.904081
5.16283,0.904041
5.22084,0.904003
5.27885,0.903965
5.33686,0.903927
5.39487,0.903887
5.45288,0.903848
5.51089,0.903809
5.5689,0.903769
5.62691,0.903725
5.68492,0.903683
5.74293,0.903642
5.80093,0.9036
5.85894,0.903563
5.91695,0.903535
5.97496,0.90351
6.03297,0.903487
6.09098,0.903465
6.14899,0.903445
6.207,0.903426
6.26501,0.903406
6.32302,0.903383
6.38103,0.903359
6.43904,0.903334
6.49705,0.903312
6.55506,0.903291
6.61307,0.903271
6.67107,0.903254
6.72908,0.903242
6.78709,0.903226
6.8451,0.903207
6.90311,0.903189
6.96112,0.903172
7.01913,0.903163
7.07714,0.903154
7.13515,0.903146
7.19316,0.903134
7.25117,0.903121
7.30918,0.903115
7.36719,0.903108
7.4252,0.903102
7.48321,0.903094
7.54122,0.903085
7.59922,0.903078
7.65723,0.903074
7.71524,0.903068
7.77325,0.903062
7.83126,0.903054
7.88927,0.903047
7.94728,0.903037
8.00529,0.903028
8.0633,0.903019
8.12131,0.903014
8.17932,0.903011
8.23733,0.903007
8.29534,0.903006
8.35335,0.903008
8.41136,0.903008
8.46936,0.90301
8.52737,0.903009
8.58538,0.903006
8.64339,0.903001
8.7014,0.902993
8.75941,0.902989
8.81742,0.902984
8.87543,0.902981
8.93344,0.902984
8.99145,0.90299
9.04946,0.902997
9.10747,0.903008
9.16548,0.903018
9.22349,0.903026
9.2815,0.903029
9.3395,0.903034
9.39751,0.903043
9.45552,0.903049
9.51353,0.903053
9.57154,0.903054
9.62955,0.90305
9.68756,0.903047
9.74557,0.903042
9.80358,0.903037
9.86159,0.903033
9.9196,0.903027
9.97761,0.903019
10.0356,0.903013
10.0936,0.903003
10.1516,0.902992
10.2096,0.902979
10.2677,0.902966
10.3257,0.902952
10.3837,0.902935
10.4417,0.902916
10.4997,0.902901
10.5577,0.90289
10.6157,0.902879
10.6737,0.902863
10.7317,0.902842
10.7897,0.902824
10.8477,0.902807
10.9058,0.902787
10.9638,0.902767
11.0218,0.90275
11.0798,0.902726
11.1378,0.902708
11.1958,0.902695
11.2538,0.90269
11.3118,0.902684
11.3698,0.902675
11.4278,0.902669
11.4859,0.90266
11.5439,0.902649
11.6019,0.902638
11.6599,0.902623
11.7179,0.902607
11.7759,0.902597
11.8339,0.902592
11.8919,0.902585
11.9499,0.90257
12.0079,0.902557
12.0659,0.902546
12.124,0.902537
12.182,0.902531
12.24,0.902525
12.298,0.902524
12.356,0.902521
12.414,0.902514
12.472,0.902503
12.53,0.90249
12.588,0.90247
12.646,0.90245
12.704,0.902428
12.7621,0.90241
12.8201,0.90239
12.8781,0.902369
12.9361,0.902352
12.9941,0.90233
13.0521,0.902306
13.1101,0.902279
13.1681,0.902252
13.2261,0.902231
13.2841,0.902209
13.3421,0.902186
13.4002,0.902165
13.4582,0.902145
13.5162,0.902128
13.5742,0.902111
13.6322,0.902104
13.6902,0.902098
13.7482,0.902099
13.8062,0.902098
13.8642,0.902093
13.9222,0.902092
13.9803,0.902092
14.0383,0.902093
14.0963,0.902091
14.1543,0.902093
14.2123,0.902104
14.2703,0.902115
14.3283,0.902129
14.3863,0.902141
14.4443,0.902154
14.5023,0.902174
14.5603,0.902196
14.6184,0.902214
14.6764,0.902233
14.7344,0.902249
14.7924,0.902267
14.8504,0.902283
14.9084,0.902295
14.9664,0.902303
15.0244,0.902307
15.0824,0.902313
15.1404,0.902317
15.1984,0.902315
15.2565,0.902313
15.3145,0.902305
15.3725,0.902293
15.4305,0.90228
15.4885,0.90226
15.5465,0.902245
15.6045,0.902233
15.6625,0.90223
15.7205,0.902223
15.7785,0.902214
15.8366,0.902206
15.8946,0.902207
15.9526,0.902211
16.0106,0.902213
16.0686,0.902215
16.1266,0.902219
16.1846,0.902218
16.2426,0.902223
16.3006,0.902224
16.3586,0.902224
16.4166,0.902224
16.4747,0.902224
16.5327,0.902227
16.5907,0.902235
16.6487,0.902242
16.7067,0.902249
16.7647,0.902254
16.8227,0.902259
16.8807,0.902267
16.9387,0.902276
16.9967,0.902284
17.0547,0.902292
17.1128,0.902303
17.1708,0.902318
17.2288,0.902335
17.2868,0.902355
17.3448,0.902372
17.4028,0.902389
17.4608,0.902403
17.5188,0.902415
17.5768,0.902433
17.6348,0.902447
17.6929,0.902455
17.7509,0.902456
17.8089,0.902453
17.8669,0.902446
17.9249,0.902447
17.9829,0.90245
18.0409,0.902459
18.0989,0.90247
18.1569,0.902478
18.2149,0.902486
18.2729,0.902495
18.331,0.902508
18.389,0.902523
18.447,0.902536
18.505,0.902545
18.563,0.902557
18.621,0.902569
18.679,0.902582
18.737,0.902602
18.795,0.90262
18.853,0.902635
18.911,0.902651
18.9691,0.902669
19.0271,0.90269
19.0851,0.902712
19.1431,0.902732
19.2011,0.90275
19.2591,0.902766
19.3171,0.902786
19.3751,0.902801
19.4331,0.902818
19.4911,0.902836
19.5492,0.902848
19.6072,0.902854
19.6652,0.902862
19.7232,0.902861
19.7812,0.902858
19.8392,0.902854
19.8972,0.902849
19.9552,0.902844
20.0132,0.90284
20.0712,0.902833
20.1292,0.90282
20.1873,0.902801
20.2453,0.902779
20.3033,0.902763
20.3613,0.902754
20.4193,0.902753
20.4773,0.90275
20.5353,0.902746
20.5933,0.902744
20.6513,0.90274
20.7093,0.90274
20.7673,0.902743
20.8254,0.902744
20.8834,0.902747
20.9414,0.902755
20.9994,0.902764
21.0574,0.902774
21.1154,0.902785
21.1734,0.902799
21.2314,0.90282
21.2894,0.902839
21.3474,0.902856
21.4054,0.902875
21.4635,0.902894
21.5215,0.902916
21.5795,0.902936
21.6375,0.902951
21.6955,0.902962
21.7535,0.90297
21.8115,0.902981
21.8695,0.902991
21.9275,0.902996
21.9855,0.903003
22.0436,0.902999
22.1016,0.902995
22.1596,0.902991
22.2176,0.902986
22.2756,0.902988
22.3336,0.902994
22.3916,0.902996
22.4496,0.902995
22.5076,0.902993
22.5656,0.902988
22.6236,0.902984
22.6817,0.902983
22.7397,0.902987
22.7977,0.902993
22.8557,0.902995
22.9137,0.902996
22.9717,0.903
23.0297,0.903007
23.0877,0.903006
23.1457,0.903004
23.2037,0.903003
23.2617,0.903003
23.3198,0.903006
23.3778,0.903009
23.4358,0.903018
23.4938,0.903023
23.5518,0.903032
23.6098,0.903045
23.6678,0.903057
23.7258,0.903066
23.7838,0.903075
23.8418,0.903079
23.8999,0.903082
23.9579,0.90309
24.0159,0.903091
24.0739,0.90309
24.1319,0.903088
24.1899,0.903097
24.2479,0.903095
24.3059,0.903094
24.3639,0.903088
24.4219,0.903074
24.4799,0.903063
24.538,0.903054
24.596,0.903045
24.654,0.903035
24.712,0.903025
24.77,0.903016
24.828,0.903003
24.886,0.902987
24.944,0.902968
25.002,0.902952
25.06,0.902941
25.118,0.90293
25.1761,0.90292
25.2341,0.902905
25.2921,0.902886
25.3501,0.902859
25.4081,0.902835
25.4661,0.902812
25.5241,0.902792
25.5821,0.902772
25.6401,0.902752
25.6981,0.902742
25.7562,0.902735
25.8142,0.902728
25.8722,0.902727
25.9302,0.90273
25.9882,0.902732
26.0462,0.902735
26.1042,0.902743
26.1622,0.902749
26.2202,0.902753
26.2782,0.90276
26.3362,0.902773
26.3943,0.902783
26.4523,0.902797
26.5103,0.902805
26.5683,0.902816
26.6263,0.902831
26.6843,0.902846
26.7423,0.902851
26.8003,0.902859
26.8583,0.902875
26.9163,0.902887
26.9743,0.902906
27.0324,0.902924
27.0904,0.902941
27.1484,0.902957
27.2064,0.902971
27.2644,0.902988
27.3224,0.903008
27.3804,0.903031
27.4384,0.903049
27.4964,0.903067
27.5544,0.903082
27.6124,0.9031
27.6705,0.903119
27.7285,0.903132
27.7865,0.903143
27.8445,0.903147
27.9025,0.903155
27.9605,0.903164
28.0185,0.903172
28.0765,0.903182
28.1345,0.903188
28.1925,0.903196
28.2506,0.903195
28.3086,0.903188
28.3666,0.903182
28.4246,0.903172
28.4826,0.903161
28.5406,0.90315
28.5986,0.903138
28.6566,0.903126
28.7146,0.903108
28.7726,0.903089
28.8306,0.903073
28.8887,0.903056
28.9467,0.903038
29.0047,0.903017
29.0627,0.902996
29.1207,0.902975
29.1787,0.902953
29.2367,0.902935
29.2947,0.90292
29.3527,0.902904
29.4107,0.902888
29.4687,0.902873
29.5268,0.902862
29.5848,0.902852
29.6428,0.902849
29.7008,0.902855
29.7588,0.902868
29.8168,0.902883
29.8748,0.902899
29.9328,0.902918
29.9908,0.902939
30.0488,0.902967
30.1069,0.902999
30.1649,0.903035
30.2229,0.903071
30.2809,0.903106
30.3389,0.903141
30.3969,0.903176
30.4549,0.903214
30.5129,0.90325
30.5709,0.903286
30.6289,0.903322
30.6869,0.903352
30.745,0.903377
30.803,0.903407
30.861,0.903439
30.919,0.903475
30.977,0.903511
31.035,0.903538
31.093,0.903555
31.151,0.903567
31.209,0.903576
31.267,0.903578
31.325,0.903579
31.3831,0.903572
31.4411,0.903562
31.4991,0.903546
31.5571,0.903527
31.6151,0.903507
31.6731,0.903482
31.7311,0.903456
31.7891,0.903425
31.8471,0.903392
31.9051,0.903359
31.9632,0.903328
32.0212,0.903302
32.0792,0.903277
32.1372,0.903254
32.1952,0.903236
32.2532,0.903222
32.3112,0.90321
32.3692,0.903204
32.4272,0.903205
32.4852,0.903213
32.5432,0.90322
32.6013,0.90323
32.6593,0.903245
32.7173,0.903264
32.7753,0.903283
32.8333,0.903303
32.8913,0.903322
32.9493,0.903345
33.0073,0.90337
33.0653,0.903399
33.1233,0.903434
33.1813,0.903472
33.2394,0.903508
33.2974,0.903544
33.3554,0.903577
33.4134,0.903609
33.4714,0.903635
33.5294,0.903653
33.5874,0.903666
33.6454,0.903684
33.7034,0.903703
33.7614,0.903709
33.8194,0.903714
33.8775,0.903715
33.9355,0.903712
33.9935,0.903706
34.0515,0.903696
34.1095,0.903681
34.1675,0.903661
34.2255,0.90364
34.2835,0.903618
34.3415,0.903598
34.3995,0.90358
34.4576,0.903574
34.5156,0.90356
34.5736,0.903543
34.6316,0.903523
34.6896,0.903505
34.7476,0.903492
34.8056,0.903483
34.8636,0.903476
34.9216,0.903466
34.9796,0.903451
35.0376,0.903435
35.0957,0.903421
35.1537,0.903409
35.2117,0.903395
35.2697,0.903381
35.3277,0.903368
35.3857,0.903357
35.4437,0.903343
35.5017,0.903335
35.5597,0.903324
35.6177,0.903314
35.6757,0.903298
35.7338,0.903279
35.7918,0.903261
35.8498,0.903247
35.9078,0.90323
35.9658,0.903207
36.0238,0.903185
36.0818,0.903168
36.1398,0.90315
36.1978,0.903127
36.2558,0.903099
36.3139,0.903074
36.3719,0.903056
36.4299,0.903041
36.4879,0.90303
36.5459,0.903012
36.6039,0.902994
36.6619,0.902983
36.7199,0.902978
36.7779,0.902973
36.8359,0.902976
36.8939,0.902982
36.952,0.902993
37.01,0.902994
37.068,0.902999
37.126,0.903009
37.184,0.903025
37.242,0.903046
37.3,0.90307
37.358,0.903096
37.416,0.90312
37.474,0.903143
37.532,0.903173
37.5901,0.903201
37.6481,0.903227
37.7061,0.90325
37.7641,0.903277
37.8221,0.903306
37.8801,0.903332
37.9381,0.903353
37.9961,0.90337
38.0541,0.903387
38.1121,0.903405
38.1702,0.903417
38.2282,0.90343
38.2862,0.903443
38.3442,0.903452
38.4022,0.903453
38.4602,0.90345
38.5182,0.903447
38.5762,0.903443
38.6342,0.903434
38.6922,0.90342
38.7502,0.903408
38.8083,0.903393
38.8663,0.90338
38.9243,0.903364
38.9823,0.903341
39.0403,0.903312
39.0983,0.90328
39.1563,0.903254
39.2143,0.903227
39.2723,0.9032
39.3303,0.903171
39.3883,0.903137
39.4464,0.903106
39.5044,0.903075
39.5624,0.903048
39.6204,0.903023
39.6784,0.903
39.7364,0.902978
39.7944,0.902956
39.8524,0.902937
39.9104,0.902916
39.9684,0.902893
40.0264,0.902871
40.0845,0.902847
40.1425,0.902822
40.2005,0.902802
40.2585,0.902779
40.3165,0.902759
40.3745,0.902737
40.4325,0.902715
40.4905,0.902693
40.5485,0.902676
40.6065,0.902662
40.6646,0.902646
40.7226,0.902629
40.7806,0.902612
40.8386,0.90259
40.8966,0.902566
40.9546,0.902538
41.0126,0.902517
41.0706,0.902493
41.1286,0.902471
41.1866,0.902447
41.2446,0.902421
41.3027,0.902391
41.3607,0.902367
41.4187,0.902344
41.4767,0.902319
41.5347,0.902287
41.5927,0.902258
41.6507,0.902234
41.7087,0.902207
41.7667,0.902181
41.8247,0.902153
41.8827,0.902129
41.9408,0.902111
41.9988,0.902095
42.0568,0.902082
42.1148,0.902072
42.1728,0.902067
42.2308,0.902055
42.2888,0.902028
42.3468,0.902003
42.4048,0.901974
42.4628,0.901947
42.5209,0.901926
42.5789,0.901903
42.6369,0.901885
42.6949,0.901869
42.7529,0.901857
42.8109,0.901853
42.8689,0.901854
42.9269,0.901855
42.9849,0.901856
43.0429,0.901864
43.1009,0.901873
43.159,0.901882
43.217,0.901891
43.275,0.901898
43.333,0.90191
43.391,0.901923
43.449,0.901937
43.507,0.901954
43.565,0.901966
43.623,0.901977
43.681,0.901986
43.739,0.902005
43.7971,0.902016
43.8551,0.90203
43.9131,0.90204
43.9711,0.902045
44.0291,0.902046
44.0871,0.902044
44.1451,0.90204
44.2031,0.902033
44.2611,0.902019
44.3191,0.902012
44.3772,0.902002
44.4352,0.901987
44.4932,0.901972
44.5512,0.901962
44.6092,0.901944
44.6672,0.901922
44.7252,0.901891
44.7832,0.901854
44.8412,0.901828
44.8992,0.901807
44.9572,0.901793
45.0153,0.901784
45.0733,0.901769
45.1313,0.901754
45.1893,0.90174
45.2473,0.901726
45.3053,0.901714
45.3633,0.901697
45.4213,0.901679
45.4793,0.901668
45.5373,0.901657
45.5953,0.901646
45.6534,0.901638
45.7114,0.901625
45.7694,0.901612
45.8274,0.9016
45.8854,0.901586
45.9434,0.901572
46.0014,0.901559
46.0594,0.901546
46.1174,0.901532
46.1754,0.901519
46.2335,0.901504
46.2915,0.901477
46.3495,0.901449
46.4075,0.901424
46.4655,0.901395
46.5235,0.901363
46.5815,0.901326
46.6395,0.901291
46.6975,0.901255
46.7555,0.901223
46.8135,0.901195
46.8716,0.901156
46.9296,0.90111
46.9876,0.901068
47.0456,0.901033
47.1036,0.900991
47.1616,0.900954
47.2196,0.90092
47.2776,0.900887
47.3356,0.900857
47.3936,0.900828
47.4516,0.900799
47.5097,0.900771
47.5677,0.900741
47.6257,0.900715
47.6837,0.900691
47.7417,0.90067
47.7997,0.900658
47.8577,0.900645
47.9157,0.900641
47.9737,0.900641
48.0317,0.900637
48.0897,0.900638
48.1478,0.900639
48.2058,0.90064
48.2638,0.900641
48.3218,0.900644
48.3798,0.900651
48.4378,0.900659
48.4958,0.900671
48.5538,0.900684
48.6118,0.900693
48.6698,0.900704
48.7279,0.90072
48.7859,0.900739
48.8439,0.900754
48.9019,0.900766
48.9599,0.900773
49.0179,0.900769
49.0759,0.900768
49.1339,0.900763
49.1919,0.900751
49.2499,0.900731
49.3079,0.900702
49.366,0.900667
49.424,0.900633
49.482,0.900607
49.54,0.900587
49.598,0.90056
49.656,0.900538
49.714,0.900519
49.772,0.900497
49.83,0.900476
49.888,0.900455
49.946,0.900435
50.0041,0.900415
50.0621,0.900394
50.1201,0.900376
50.1781,0.900362
50.2361,0.90035
50.2941,0.900338
50.3521,0.900323
50.4101,0.900311
50.4681,0.900298
50.5261,0.900286
50.5842,0.900276
50.6422,0.900269
50.7002,0.900261
50.7582,0.900256
50.8162,0.900249
50.8742,0.900249
50.9322,0.900249
50.9902,0.900254
51.0482,0.900251
51.1062,0.90025
51.1642,0.90025
51.2223,0.900248
51.2803,0.900243
51.3383,0.900234
51.3963,0.900223
51.4543,0.90021
51.5123,0.900196
51.5703,0.900183
51.6283,0.900166
51.6863,0.900148
51.7443,0.900131
51.8023,0.900114
51.8604,0.900098
51.9184,0.900085
51.9764,0.900074
52.0344,0.900062
52.0924,0.900052
52.1504,0.900043
52.2084,0.900033
52.2664,0.900019
52.3244,0.900001
52.3824,0.899982
52.4405,0.899967
52.4985,0.899948
52.5565,0.899931
52.6145,0.899912
52.6725,0.899895
52.7305,0.899878
52.7885,0.899858
52.8465,0.89984
52.9045,0.899818
52.9625,0.899797
53.0205,0.899773
53.0786,0.899752
53.1366,0.89973
53.1946,0.899703
53.2526,0.899676
53.3106,0.899649
53.3686,0.899621
53.4266,0.899595
53.4846,0.899564
53.5426,0.899532
53.6006,0.899499
53.6586,0.899462
53.7167,0.899439
53.7747,0.899419
53.8327,0.899396
53.8907,0.899366
53.9487,0.899334
54.0067,0.899302
54.0647,0.899269
54.1227,0.899239
54.1807,0.899205
54.2387,0.899174
54.2967,0.89913
54.3548,0.899088
54.4128,0.89904
54.4708,0.899
54.5288,0.898958
54.5868,0.898914
54.6448,0.898872
54.7028,0.898832
54.7608,0.898798
54.8188,0.89877
54.8768,0.898746
54.9349,0.898726
54.9929,0.898709
55.0509,0.898695
55.1089,0.898687
55.1669,0.898687
55.2249,0.89869
55.2829,0.898694
55.3409,0.8987
55.3989,0.898712
55.4569,0.898723
55.5149,0.898736
55.573,0.898752
55.631,0.898764
55.689,0.898777
55.747,0.898793
55.805,0.89881
55.863,0.898826
55.921,0.898842
55.979,0.898857
56.037,0.898873
56.095,0.898887
56.153,0.898901
56.2111,0.898922
56.2691,0.898936
56.3271,0.898936
56.3851,0.898933
56.4431,0.898932
56.5011,0.898927
56.5591,0.898921
56.6171,0.898912
56.6751,0.898899
56.7331,0.898879
56.7912,0.898848
56.8492,0.89882
56.9072,0.898792
56.9652,0.898771
57.0232,0.898746
57.0812,0.898721
57.1392,0.898706
57.1972,0.898688
57.2552,0.898673
57.3132,0.898653
57.3712,0.898633
57.4293,0.898613
57.4873,0.898595
57.5453,0.898586
57.6033,0.898574
57.6613,0.898558
57.7193,0.898544
57.7773,0.898529
57.8353,0.898517
57.8933,0.898501
57.9513,0.898478
58.0093,0.89846
58.0674,0.89844
58.1254,0.898423
58.1834,0.898407
58.2414,0.89839
58.2994,0.89837
58.3574,0.898346
58.4154,0.898321
58.4734,0.898301
58.5314,0.898279
58.5894,0.898252
58.6475,0.898226
58.7055,0.898201
58.7635,0.898178
58.8215,0.898158
58.8795,0.898136
58.9375,0.898108
58.9955,0.898081
59.0535,0.898056
59.1115,0.898033
59.1695,0.898005
59.2275,0.897977
59.2856,0.897953
59.3436,0.89793
59.4016,0.897915
59.4596,0.897905
59.5176,0.897892
59.5756,0.897883
59.6336,0.897876
59.6916,0.897867
59.7496,0.897862
59.8076,0.897853
59.8656,0.897851
59.9237,0.897849
59.9817,0.897851
60.0397,0.897859
60.0977,0.89786
60.1557,0.897864
60.2137,0.89787
60.2717,0.897875
60.3297,0.897871
60.3877,0.897868
60.4457,0.897865
60.5037,0.897866
60.5618,0.89787
60.6198,0.897869
60.6778,0.897858
60.7358,0.897842
60.7938,0.897824
60.8518,0.897811
60.9098,0.897798
60.9678,0.897787
61.0258,0.897772
61.0838,0.897756
61.1419,0.897749
61.1999,0.89774
61.2579,0.897729
61.3159,0.897715
61.3739,0.8977
61.4319,0.897681
61.4899,0.89767
61.5479,0.897659
61.6059,0.897643
61.6639,0.897625
61.7219,0.897613
61.78,0.897602
61.838,0.897598
61.896,0.897601
61.954,0.897602
62.012,0.897597
62.07,0.897591
62.128,0.897586
62.186,0.897584
62.244,0.89758
62.302,0.897573
62.36,0.89757
62.4181,0.897567
62.4761,0.897563
62.5341,0.897562
62.5921,0.897557
62.6501,0.897549
62.7081,0.897537
62.7661,0.89752
62.8241,0.897499
62.8821,0.897488
62.9401,0.897469
62.9982,0.897455
63.0562,0.897441
63.1142,0.89742
63.1722,0.897394
63.2302,0.897376
63.2882,0.897361
63.3462,0.897352
63.4042,0.897341
63.4622,0.897326
63.5202,0.897312
63.5782,0.897302
63.6363,0.89729
63.6943,0.89727
63.7523,0.897248
63.8103,0.897224
63.8683,0.897205
63.9263,0.897184
63.9843,0.897162
64.0423,0.897138
64.1003,0.897112
64.1583,0.897092
64.2163,0.897077
64.2744,0.897065
64.3324,0.897057
64.3904,0.897049
64.4484,0.897041
64.5064,0.897033
64.5644,0.897022
64.6224,0.897011
64.6804,0.896995
64.7384,0.896982
64.7964,0.896971
64.8545,0.896961
64.9125,0.896949
64.9705,0.896935
65.0285,0.896924
65.0865,0.89691
65.1445,0.896893
65.2025,0.896874
65.2605,0.896854
65.3185,0.896837
65.3765,0.896831
65.4345,0.896817
65.4926,0.896804
65.5506,0.89679
65.6086,0.896766
65.6666,0.896757
65.7246,0.896743
65.7826,0.89672
65.8406,0.896699
65.8986,0.896681
65.9566,0.896661
66.0146,0.896636
66.0726,0.896608
66.1307,0.896579
66.1887,0.896545
66.2467,0.896516
66.3047,0.896485
66.3627,0.896457
66.4207,0.896427
66.4787,0.896397
66.5367,0.896362
66.5947,0.89634
66.6527,0.896319
66.7107,0.896298
66.7688,0.896275
66.8268,0.89626
66.8848,0.896244
66.9428,0.896223
67.0008,0.8962
67.0588,0.896174
67.1168,0.896153
67.1748,0.89613
67.2328,0.896107
67.2908,0.896086
67.3489,0.896062
67.4069,0.896033
67.4649,0.896006
67.5229,0.895982
67.5809,0.895956
67.6389,0.895933
67.6969,0.895909
67.7549,0.895894
67.8129,0.895886
67.8709,0.895873
67.9289,0.895847
67.987,0.895811
68.045,0.895777
68.103,0.895746
68.161,0.895719
68.219,0.895687
68.277,0.895651
68.335,0.895628
68.393,0.895608
68.451,0.895583
68.509,0.895551
68.567,0.895518
68.6251,0.895485
68.6831,0.895454
68.7411,0.895423
68.7991,0.895393
68.8571,0.895357
68.9151,0.895321
68.9731,0.895287
69.0311,0.895253
69.0891,0.895225
69.1471,0.895197
69.2052,0.895166
69.2632,0.895139
69.3212,0.895115
69.3792,0.895089
69.4372,0.895062
69.4952,0.895034
69.5532,0.895013
69.6112,0.894987
69.6692,0.89496
69.7272,0.894933
69.7852,0.894908
69.8433,0.894886
69.9013,0.894857
69.9593,0.894832
70.0173,0.894808
70.0753,0.894787
70.1333,0.89477
70.1913,0.894749
70.2493,0.894729
70.3073,0.894708
70.3653,0.894676
70.4233,0.894644
70.4814,0.894612
70.5394,0.894595
70.5974,0.894583
70.6554,0.894571
70.7134,0.894558
70.7714,0.894546
70.8294,0.894536
70.8874,0.89452
70.9454,0.894503
71.0034,0.894486
71.0615,0.894458
71.1195,0.89443
71.1775,0.894408
71.2355,0.894385
71.2935,0.894363
71.3515,0.894333
71.4095,0.894308
71.4675,0.894286
71.5255,0.89427
71.5835,0.894251
71.6415,0.894236
71.6996,0.894221
71.7576,0.894203
71.8156,0.894194
71.8736,0.894181
71.9316,0.89417
71.9896,0.89416
72.0476,0.894151
72.1056,0.89414
72.1636,0.89413
72.2216,0.894116
72.2796,0.894101
72.3377,0.89409
72.3957,0.89407
72.4537,0.894053
72.5117,0.894037
72.5697,0.894024
72.6277,0.89401
72.6857,0.893994
72.7437,0.893976
72.8017,0.893959
72.8597,0.89394
72.9178,0.893923
72.9758,0.893904
73.0338,0.893893
73.0918,0.893874
73.1498,0.893848
73.2078,0.893817
73.2658,0.893788
73.3238,0.893755
73.3818,0.893717
73.4398,0.893682
73.4978,0.893647
73.5559,0.893608
73.6139,0.893572
73.6719,0.893538
73.7299,0.893503
73.7879,0.893471
73.8459,0.893435
73.9039,0.893402
73.9619,0.893371
74.0199,0.893346
74.0779,0.89332
74.1359,0.893294
74.194,0.893267
74.252,0.893237
74.31,0.893211
74.368,0.89318
74.426,0.89315
74.484,0.893116
74.542,0.893084
74.6,0.893049
74.658,0.893016
74.716,0.892981
74.774,0.89295
74.8321,0.892917
74.8901,0.892886
74.9481,0.892852
75.0061,0.892821
75.0641,0.892795
75.1221,0.892766
75.1801,0.892736
75.2381,0.892702
75.2961,0.892671
75.3541,0.892642
75.4122,0.892619
75.4702,0.892595
75.5282,0.892574
75.5862,0.892549
75.6442,0.892522
75.7022,0.892497
75.7602,0.892471
75.8182,0.892444
75.8762,0.892424
75.9342,0.892408
75.9922,0.892389
76.0503,0.892364
76.1083,0.892338
76.1663,0.892314
76.2243,0.892283
76.2823,0.892249
76.3403,0.892211
76.3983,0.892177
76.4563,0.892147
76.5143,0.892122
76.5723,0.892095
76.6303,0.892063
76.6884,0.89203
76.7464,0.891995
76.8044,0.891964
76.8624,0.891932
76.9204,0.891898
76.9784,0.891861
77.0364,0.891828
77.0944,0.891796
77.1524,0.891766
77.2104,0.891731
77.2685,0.891701
77.3265,0.891674
77.3845,0.891648
77.4425,0.891622
77.5005,0.891598
77.5585,0.891575
77.6165,0.891551
77.6745,0.891527
77.7325,0.891501
77.7905,0.891483
77.8485,0.89147
77.9066,0.891454
77.9646,0.891438
78.0226,0.891426
78.0806,0.891412
78.1386,0.891401
78.1966,0.891394
78.2546,0.891393
78.3126,0.891389
78.3706,0.891386
78.4286,0.891384
78.4866,0.891378
78.5447,0.89137
78.6027,0.891367
78.6607,0.891364
78.7187,0.891357
78.7767,0.891351
78.8347,0.891352
78.8927,0.891352
78.9507,0.891355
79.0087,0.891357
79.0667,0.891355
79.1248,0.891351
79.1828,0.891344
79.2408,0.891336
79.2988,0.891325
79.3568,0.891311
79.4148,0.891288
79.4728,0.891267
79.5308,0.891248
79.5888,0.891226
79.6468,0.8912
79.7048,0.891173
79.7629,0.891147
79.8209,0.89112
79.8789,0.891094
79.9369,0.891068
79.9949,0.891045
80.0529,0.891019
80.1109,0.890993
80.1689,0.89096
80.2269,0.890926
80.2849,0.8909
80.3429,0.890873
80.401,0.890843
80.459,0.890817
80.517,0.89079
80.575,0.890765
80.633,0.890743
80.691,0.890725
80.749,0.890704
80.807,0.89068
80.865,0.890655
80.923,0.89063
80.981,0.890604
81.0391,0.890576
81.0971,0.890548
81.1551,0.89052
81.2131,0.890496
81.2711,0.890467
81.3291,0.890433
81.3871,0.890397
81.4451,0.890364
81.5031,0.890327
81.5611,0.890291
81.6192,0.890249
81.6772,0.890203
81.7352,0.89016
81.7932,0.890114
81.8512,0.890068
81.9092,0.890024
81.9672,0.889977
82.0252,0.889936
82.0832,0.889896
82.1412,0.889856
82.1992,0.889823
82.2573,0.889791
82.3153,0.889764
82.3733,0.889741
82.4313,0.88972
82.4893,0.889695
82.5473,0.889664
82.6053,0.889626
82.6633,0.889589
82.7213,0.889559
82.7793,0.889534
82.8373,0.889509
82.8954,0.889483
82.9534,0.889456
83.0114,0.889428
83.0694,0.889403
83.1274,0.889383
83.1854,0.889363
83.2434,0.889338
83.3014,0.889312
83.3594,0.889285
83.4174,0.889261
83.4755,0.889241
83.5335,0.88922
83.5915,0.889201
83.6495,0.889182
83.7075,0.889163
83.7655,0.889135
83.8235,0.889105
83.8815,0.88908
83.9395,0.889057
83.9975,0.88903
84.0555,0.889004
84.1136,0.888974
84.1716,0.888947
84.2296,0.888926
84.2876,0.888908
84.3456,0.888892
84.4036,0.888878
84.4616,0.888862
84.5196,0.88885
84.5776,0.888845
84.6356,0.888842
84.6936,0.888833
84.7517,0.888824
84.8097,0.888817
84.8677,0.888811
84.9257,0.888806
84.9837,0.888802
85.0417,0.888799
85.0997,0.888798
85.1577,0.888799
85.2157,0.888801
85.2737,0.888804
85.3318,0.888809
85.3898,0.888815
85.4478,0.888823
85.5058,0.888833
85.5638,0.888845
85.6218,0.888858
85.6798,0.888873
85.7378,0.88889
85.7958,0.888909
85.8538,0.88893
85.9118,0.888952
85.9284,0.888959