File: smoothed_normalized_data/35.0mA1msec-0.2mA14msec.csv
Capacity_mAh,Voltage_V
0.0,1.0
0.119,0.991496
0.238,0.983554
0.357001,0.976157
0.476001,0.969285
0.595001,0.962919
0.714001,0.95704
0.833001,0.95163
0.952001,0.946668
1.071,0.942137
1.19,0.938017
1.309,0.934289
1.428,0.930934
1.547,0.927934
1.666,0.925269
1.785,0.922921
1.904,0.92087
2.023,0.919097
2.142,0.917584
2.261,0.916311
2.38,0.91526
2.499,0.914411
2.618,0.913746
2.737,0.913399
2.856,0.913374
2.975,0.913082
3.094,0.912736
3.213,0.91241
3.33201,0.912087
3.45101,0.911769
3.57001,0.911481
3.68901,0.911222
3.80801,0.910992
3.92701,0.910794
4.04601,0.910627
4.16501,0.910477
4.28401,0.910329
4.40301,0.910187
4.52201,0.910068
4.64101,0.909958
4.76001,0.909853
4.87901,0.909749
4.99801,0.909653
5.11701,0.909552
5.23601,0.90945
5.35501,0.909349
5.47401,0.909249
5.59301,0.909147
5.71201,0.909055
5.83101,0.908975
5.95001,0.908888
6.06901,0.908801
6.18801,0.908708
6.30701,0.908625
6.42601,0.908532
6.54501,0.908452
6.66401,0.908373
6.78301,0.908279
6.90201,0.908192
7.02101,0.9081
7.14001,0.908
7.25901,0.907916
7.37801,0.907844
7.49701,0.907777
7.61601,0.907712
7.73501,0.90765
7.85401,0.907581
7.97301,0.907497
8.09201,0.907406
8.21101,0.907302
8.33001,0.907221
8.44901,0.90715
8.56801,0.907076
8.68701,0.906984
8.80601,0.9069
8.92501,0.906821
9.04401,0.906755
9.16301,0.906694
9.28201,0.906635
9.40101,0.90657
9.52001,0.906511
9.63901,0.906456
9.75801,0.906414
9.87702,0.906377
9.99602,0.906335
10.115,0.90629
10.234,0.906243
10.353,0.906194
10.472,0.906145
10.591,0.906103
10.71,0.906064
10.829,0.906033
10.948,0.906012
11.067,0.905993
11.186,0.905974
11.305,0.90595
11.424,0.905923
11.543,0.905894
11.662,0.90587
11.781,0.905838
11.9,0.905798
12.019,0.905752
12.138,0.905702
12.257,0.905662
12.376,0.905611
12.495,0.905569
12.614,0.905522
12.733,0.905464
12.852,0.905393
12.971,0.905316
13.09,0.905244
13.209,0.905169
13.328,0.905092
13.447,0.905018
13.566,0.904953
13.685,0.904891
13.804,0.904835
13.923,0.904786
14.042,0.904741
14.161,0.904704
14.28,0.904671
14.399,0.904636
14.518,0.904611
14.637,0.904589
14.756,0.904575
14.875,0.904565
14.994,0.904564
15.113,0.904571
15.232,0.904586
15.351,0.904607
15.47,0.904634
15.589,0.904655
15.708,0.904668
15.827,0.904679
15.946,0.904698
16.065,0.904713
16.184,0.904734
16.303,0.904761
16.422,0.904784
16.541,0.904808
16.66,0.904839
16.779,0.904862
16.898,0.904885
17.017,0.904901
17.136,0.90491
17.255,0.904915
17.374,0.904927
17.493,0.904941
17.612,0.904957
17.731,0.904955
17.85,0.904945
17.969,0.904922
18.088,0.904898
18.207,0.904881
18.326,0.904877
18.445,0.904874
18.564,0.904857
18.683,0.90484
18.802,0.904831
18.921,0.904844
19.04,0.904855
19.159,0.90487
19.278,0.904874
19.397,0.904877
19.516,0.904893
19.635,0.904918
19.754,0.904929
19.873,0.904948
19.992,0.904989
20.111,0.905013
20.23,0.905005
20.349,0.905021
20.468,0.905027
20.587,0.90502
20.706,0.905004
20.825,0.904984
20.944,0.904956
21.063,0.904919
21.182,0.904887
21.301,0.904852
21.42,0.904817
21.539,0.904786
21.658,0.904739
21.777,0.904708
21.896,0.904685
22.015,0.904656
22.134,0.904608
22.253,0.904571
22.372,0.904541
22.491,0.904515
22.61,0.904484
22.729,0.904458
22.848,0.904424
22.967,0.904382
23.086,0.904338
23.205,0.904309
23.324,0.904292
23.443,0.904253
23.562,0.904219
23.681,0.904184
23.8,0.904153
23.919,0.904126
24.038,0.904117
24.157,0.904124
24.276,0.904139
24.395,0.904122
24.514,0.904122
24.633,0.904128
24.752,0.904137
24.871,0.904158
24.99,0.904161
25.109,0.90416
25.228,0.904168
25.347,0.904146
25.466,0.904108
25.585,0.904101
25.704,0.90411
25.823,0.90408
25.942,0.904044
26.061,0.904002
26.18,0.903967
26.299,0.903918
26.418,0.903848
26.537,0.903787
26.656,0.903726
26.775,0.903692
26.894,0.903639
27.013,0.903607
27.132,0.903575
27.251,0.903521
27.37,0.903477
27.489,0.903439
27.608,0.903413
27.727,0.903369
27.846,0.903336
27.965,0.903301
28.084,0.903288
28.203,0.903256
28.322,0.903204
28.441,0.903163
28.56,0.903103
28.679,0.903026
28.798,0.902938
28.917,0.902876
29.036,0.902818
29.155,0.902782
29.274,0.902743
29.393,0.902705
29.512,0.90267
29.631,0.902632
29.75,0.902579
29.869,0.902581
29.988,0.902547
30.107,0.902531
30.226,0.902514
30.345,0.902457
30.464,0.902412
30.583,0.902378
30.702,0.902349
30.821,0.902326
30.94,0.902284
31.059,0.902234
31.178,0.90218
31.297,0.902123
31.416,0.902051
31.535,0.901989
31.654,0.901908
31.773,0.901835
31.892,0.901791
32.011,0.901762
32.13,0.901711
32.249,0.901644
32.368,0.901588
32.487,0.901551
32.606,0.901513
32.725,0.901486
32.8441,0.901463
32.9631,0.901418
33.0821,0.901382
33.2011,0.901354
33.3201,0.901303
33.4391,0.901266
33.5581,0.901196
33.6771,0.901151
33.7961,0.901118
33.9151,0.901083
34.0341,0.901045
34.1531,0.900996
34.2721,0.900947
34.3911,0.900933
34.5101,0.900907
34.6291,0.900839
34.7481,0.900755
34.8671,0.900692
34.9861,0.900624
35.1051,0.900581
35.2241,0.900533
35.3431,0.900496
35.4621,0.900424
35.5811,0.900351
35.7001,0.900265
35.8191,0.900205
35.9381,0.900115
36.0571,0.900014
36.1761,0.899911
36.2951,0.899796
36.4141,0.899693
36.5331,0.899576
36.6521,0.899454
36.7711,0.899355
36.8901,0.899302
37.0091,0.899245
37.1281,0.899178
37.2471,0.899105
37.3661,0.899017
37.4851,0.898923
37.6041,0.898829
37.7231,0.898749
37.8421,0.898658
37.9611,0.898565
38.0801,0.898479
38.1991,0.89839
38.3181,0.898331
38.4371,0.898288
38.5561,0.898227
38.6751,0.898185
38.7941,0.898124
38.9131,0.898048
39.0321,0.898008
39.1511,0.897954
39.2701,0.897882
39.3891,0.897827
39.5081,0.897783
39.6271,0.897747
39.7461,0.897706
39.8651,0.897629
39.9841,0.897561
40.1031,0.897527
40.2221,0.897506
40.3411,0.897478
40.4601,0.897473
40.5791,0.897449
40.6981,0.89741
40.8171,0.897362
40.9361,0.897323
41.0551,0.897288
41.1741,0.897257
41.2931,0.89723
41.4121,0.897225
41.5311,0.897205
41.6501,0.8972
41.7691,0.897195
41.8881,0.89718
42.0071,0.897189
42.1261,0.897199
42.2451,0.897203
42.3641,0.897172
42.4831,0.897128
42.6021,0.897081
42.7211,0.897025
42.8401,0.896963
42.9591,0.896905
43.0781,0.896867
43.1971,0.896833
43.3161,0.896817
43.4351,0.896808
43.5541,0.896804
43.6731,0.896799
43.7921,0.89678
43.9111,0.896761
44.0301,0.896728
44.1491,0.896688
44.2681,0.89669
44.3871,0.896686
44.5061,0.896658
44.6251,0.896659
44.7441,0.896643
44.8631,0.896597
44.9821,0.896547
45.1011,0.896506
45.2201,0.896474
45.3391,0.896435
45.4581,0.896395
45.5771,0.896355
45.6961,0.896318
45.8151,0.89627
45.9341,0.896224
46.0531,0.896184
46.1721,0.896143
46.2911,0.89611
46.4101,0.896073
46.5291,0.896019
46.6481,0.895953
46.7671,0.895889
46.8861,0.895829
47.0051,0.895763
47.1241,0.895708
47.2431,0.895664
47.3621,0.895623
47.4811,0.895575
47.6001,0.895521
47.7191,0.895453
47.8381,0.895394
47.9571,0.895344
48.0761,0.895305
48.1951,0.895277
48.3141,0.895258
48.4331,0.895247
48.5521,0.895244
48.6711,0.895231
48.7901,0.895221
48.9091,0.895208
49.0281,0.895199
49.1471,0.895179
49.2661,0.895145
49.3851,0.895124
49.5041,0.895125
49.6231,0.895117
49.7421,0.895094
49.8611,0.89508
49.9801,0.895048
50.0991,0.895012
50.2181,0.894987
50.3371,0.894966
50.4561,0.894941
50.5751,0.894903
50.6941,0.894867
50.8131,0.894836
50.9321,0.894805
51.0511,0.894769
51.1701,0.894733
51.2891,0.894703
51.4081,0.894667
51.5271,0.894628
51.6461,0.89458
51.7651,0.894513
51.8841,0.894457
52.0031,0.894415
52.1221,0.894385
52.2411,0.894349
52.3601,0.894309
52.4791,0.894277
52.5981,0.89424
52.7171,0.894205
52.8361,0.894165
52.9551,0.894126
53.0741,0.894084
53.1931,0.894045
53.3121,0.894009
53.4311,0.893969
53.5501,0.893925
53.6691,0.893884
53.7881,0.893843
53.9071,0.893799
54.0261,0.893759
54.1451,0.89372
54.2641,0.893681
54.3831,0.893641
54.5021,0.893599
54.6211,0.893558
54.7401,0.893521
54.8591,0.89348
54.9781,0.89343
55.0971,0.893388
55.2161,0.89335
55.3351,0.893312
55.4541,0.893271
55.5731,0.893225
55.6921,0.89318
55.8111,0.893133
55.9301,0.893092
56.0491,0.893053
56.1681,0.893016
56.2871,0.892976
56.4061,0.892936
56.5251,0.892898
56.6441,0.892857
56.7631,0.892817
56.8821,0.892778
57.0011,0.89274
57.1201,0.892704
57.2391,0.892669
57.3581,0.892636
57.4771,0.8926
57.5961,0.892564
57.7151,0.892529
57.8341,0.892496
57.9531,0.892461
58.0721,0.892423
58.1911,0.892383
58.3101,0.892344
58.4291,0.892299
58.5481,0.892254
58.6671,0.892204
58.7861,0.892152
58.9051,0.892103
59.0241,0.892051
59.1431,0.891999
59.2621,0.891947
59.3811,0.891898
59.5001,0.891852
59.6191,0.891811
59.7381,0.891774
59.8571,0.891738
59.9761,0.891707
60.0951,0.891682
60.2141,0.891665
60.3331,0.89165
60.4521,0.891635
60.5711,0.891621
60.6901,0.8916
60.8091,0.891593
60.9281,0.891601
61.0471,0.891593
61.1661,0.891581
61.2851,0.89157
61.4041,0.89157
61.5231,0.891577
61.6421,0.891591
61.7611,0.891608
61.8801,0.891626
61.9991,0.891635
62.1181,0.89164
62.2371,0.891621
62.3561,0.891602
62.4751,0.891577
62.5941,0.891564
62.7131,0.891554
62.8321,0.891542
62.9511,0.891531
63.0701,0.891511
63.1891,0.891488
63.3081,0.891465
63.4271,0.891427
63.5461,0.891389
63.6651,0.89134
63.7841,0.891295
63.9031,0.891247
64.0221,0.891203
64.1411,0.891158
64.2601,0.891096
64.3791,0.89103
64.4981,0.890986
64.6171,0.890939
64.7361,0.890876
64.8551,0.890801
64.9741,0.890725
65.0931,0.890636
65.2121,0.890562
65.3311,0.890489
65.4501,0.890413
65.5691,0.890331
65.6881,0.890253
65.8071,0.890169
65.9261,0.890091
66.0451,0.890014
66.1641,0.889953
66.2831,0.889897
66.4021,0.889838
66.5211,0.889809
66.6401,0.889787
66.7591,0.889745
66.8781,0.889706
66.9971,0.889668
67.1161,0.889604
67.2351,0.889535
67.3541,0.889473
67.4731,0.889419
67.5921,0.889397
67.7111,0.889395
67.8301,0.889405
67.9491,0.889424
68.0681,0.88944
68.1871,0.889457
68.3061,0.889475
68.4251,0.889489
68.5441,0.889506
68.6631,0.889524
68.7821,0.889543
68.9011,0.889581
69.0201,0.889635
69.1391,0.889681
69.2581,0.889701
69.3771,0.889709
69.4961,0.889698
69.6151,0.889686
69.7341,0.889678
69.8531,0.889662
69.9721,0.889606
70.0911,0.889549
70.2101,0.889497
70.3291,0.88945
70.4481,0.889407
70.5671,0.889374
70.6861,0.889319
70.8051,0.889279
70.9241,0.889225
71.0431,0.889171
71.1621,0.889114
71.2811,0.889059
71.4001,0.888988
71.5191,0.88893
71.6381,0.888852
71.7571,0.888751
71.8761,0.888648
71.9951,0.888537
72.1141,0.888425
72.2331,0.888331
72.3521,0.888237
72.4711,0.88813
72.5901,0.888039
72.7091,0.887967
72.8281,0.887898
72.9471,0.887822
73.0661,0.887751
73.1851,0.887677
73.3041,0.887605
73.4231,0.887528
73.5421,0.887459
73.6611,0.887399
73.7801,0.887326
73.8991,0.887254
74.0181,0.887187
74.1371,0.887126
74.2561,0.887072
74.3751,0.886993
74.4941,0.886865
74.6131,0.886741
74.7321,0.886627
74.8511,0.886519
74.9701,0.886417
75.0891,0.886327
75.2081,0.886257
75.3271,0.886184
75.4461,0.886121
75.5651,0.886036
75.6841,0.88596
75.8031,0.885874
75.9221,0.885794
76.0411,0.885697
76.1601,0.8856
76.2791,0.885487
76.3981,0.885371
76.5171,0.885264
76.6361,0.885143
76.7551,0.885043
76.8741,0.884963
76.9931,0.884872
77.1121,0.884784
77.2311,0.884691
77.3501,0.884581
77.4691,0.884471
77.5881,0.884376
77.7071,0.884262
77.8261,0.884139
77.9451,0.884045
78.0641,0.88396
78.1831,0.883876
78.3021,0.883777
78.4211,0.883676
78.5401,0.883571
78.6591,0.883474
78.7781,0.883375
78.8971,0.883256
79.0161,0.883127
79.1351,0.883001
79.2541,0.882897
79.3731,0.882796
79.4921,0.882701
79.6111,0.882602
79.7301,0.882486
79.8491,0.882371
79.9681,0.882271
80.0871,0.882184
80.2061,0.882104
80.3251,0.882025
80.4441,0.881934
80.5631,0.881823
80.6821,0.881711
80.8011,0.881607
80.9201,0.881524
81.0391,0.881463
81.1581,0.881373
81.2771,0.881289
81.3961,0.881207
81.5151,0.881144
81.6341,0.881088
81.7531,0.881046
81.8721,0.881004
81.9911,0.880969
82.1101,0.880929
82.2291,0.880868
82.3481,0.880775
82.4671,0.880694
82.5861,0.880609
82.7051,0.880533
82.8241,0.88047
82.9431,0.880395
83.0621,0.880315
83.1811,0.88026
83.3001,0.880218
83.4191,0.880147
83.5381,0.880052
83.6571,0.879967
83.7761,0.87989
83.8951,0.879804
84.0141,0.879715
84.1331,0.87961
84.2521,0.879525
84.3711,0.879449
84.4901,0.879375
84.6091,0.879303
84.7281,0.879229
84.8471,0.87915
84.9661,0.879053
85.0851,0.87894
85.2041,0.87884
85.3231,0.878732
85.4421,0.878616
85.5611,0.878501
85.6801,0.878396
85.7991,0.878288
85.9181,0.878186
86.0371,0.878096
86.1561,0.878
86.2751,0.877889
86.3941,0.877755
86.5131,0.877619
86.6321,0.877517
86.7511,0.877414
86.8701,0.877287
86.9891,0.877168
87.1081,0.877035
87.2271,0.876884
87.3461,0.87675
87.4651,0.87659
87.5841,0.876427
87.7031,0.876288
87.8221,0.876157
87.9411,0.876032
88.0601,0.87591
88.1791,0.875792
88.2981,0.875693
88.4171,0.8756
88.5361,0.875524
88.6551,0.875439
88.7741,0.875363
88.8931,0.875277
89.0121,0.875178
89.1311,0.875078
89.2501,0.874988
89.3691,0.874925
89.4881,0.874879
89.6071,0.874838
89.7261,0.874796
89.8451,0.874744
89.9641,0.874682
90.0831,0.874601
90.2021,0.874503
90.3211,0.874422
90.4401,0.874338
90.5591,0.874233
90.6781,0.874105
90.7971,0.873977
90.9161,0.873856
91.0351,0.873728
91.1541,0.873612
91.2731,0.873489
91.3921,0.873362
91.5111,0.873237
91.6301,0.873101
91.7491,0.872973
91.8681,0.872831
91.9871,0.872697
92.1061,0.872551
92.2251,0.872414
92.3441,0.872293
92.4631,0.872152
92.5821,0.872018
92.7011,0.871877
92.8201,0.871727
92.9391,0.871585
93.0581,0.87146
93.1771,0.871338
93.2961,0.87122
93.4151,0.871127
93.5341,0.871039
93.6531,0.870955
93.7721,0.870899
93.8911,0.870837
94.0101,0.870755
94.1291,0.87064
94.2481,0.870516
94.3671,0.870424
94.4861,0.870349
94.6051,0.870305
94.7241,0.87026
94.8431,0.870186
94.9621,0.870085
95.0811,0.869976
95.2001,0.869854
95.3191,0.869757
95.4381,0.869695
95.5571,0.869622
95.6761,0.86953
95.7951,0.869412
95.9141,0.869308
96.0331,0.869205
96.1521,0.869125
96.2711,0.869063
96.3901,0.868984
96.5091,0.868899
96.6281,0.868809
96.7471,0.868709
96.8661,0.868591
96.9851,0.868491
97.1041,0.868378
97.2231,0.868271
97.3421,0.868169
97.4611,0.868039
97.5801,0.86793
97.6991,0.867822
97.8181,0.867693
97.9371,0.867566
98.0561,0.867463
98.1751,0.867357
98.2941,0.86727
98.4132,0.867185
98.5322,0.867115
98.6512,0.867047
98.7702,0.866984
98.8892,0.866925
99.0082,0.866856
99.1272,0.866776
99.2462,0.866655
99.3652,0.866548
99.4842,0.866434
99.6032,0.866326
99.7222,0.866263
99.8412,0.866206
99.9602,0.866137
100.079,0.866028
100.198,0.865924
100.317,0.865834
100.436,0.865727
100.555,0.865628
100.674,0.865541
100.793,0.865437
100.912,0.865294
101.031,0.865192
101.15,0.865091
101.269,0.864991
101.388,0.864878
101.507,0.864749
101.626,0.864623
101.745,0.864488
101.864,0.864353
101.983,0.864237
102.102,0.8641
102.221,0.863989
102.34,0.863846
102.459,0.863702
102.578,0.863579
102.697,0.863448
102.816,0.863355
102.935,0.863268
103.054,0.863154
103.173,0.863048
103.292,0.862976
103.411,0.862904
103.53,0.862822
103.649,0.862756
103.768,0.862699
103.887,0.862654
104.006,0.862603
104.125,0.862544
104.244,0.862465
104.363,0.862402
104.482,0.862321
104.601,0.862232
104.72,0.862152
104.839,0.8621
104.958,0.862072
105.077,0.862051
105.196,0.861987
105.315,0.861909
105.434,0.861836
105.553,0.861773
105.672,0.861699
105.791,0.861616
105.91,0.861551
106.029,0.861482
106.148,0.861404
106.267,0.861332
106.386,0.861266
106.505,0.861177
106.624,0.861087
106.743,0.861014
106.862,0.860936
106.981,0.860895
107.1,0.860828
107.219,0.860777
107.338,0.860725
107.457,0.860664
107.576,0.860576
107.695,0.860498
107.814,0.860451
107.933,0.860382
108.052,0.860299
108.171,0.860228
108.29,0.860143
108.409,0.860063
108.528,0.860008
108.647,0.859944
108.766,0.859879
108.885,0.859807
109.004,0.859744
109.123,0.859676
109.242,0.859601
109.361,0.859522
109.48,0.859437
109.599,0.859367
109.718,0.859292
109.837,0.859194
109.956,0.859119
110.075,0.859065
110.194,0.859006
110.313,0.858924
110.432,0.858819
110.551,0.858709
110.67,0.858589
110.789,0.858473
110.908,0.858367
111.027,0.858256
111.146,0.858139
111.265,0.858017
111.384,0.857893
111.503,0.857777
111.622,0.857644
111.741,0.857503
111.86,0.857368
111.979,0.857246
112.098,0.857123
112.217,0.856998
112.336,0.856885
112.455,0.856776
112.574,0.856655
112.693,0.856515
112.812,0.856388
112.931,0.856271
113.05,0.856146
113.169,0.856012
113.288,0.855855
113.407,0.855715
113.526,0.855575
113.645,0.855446
113.764,0.855325
113.883,0.855205
114.002,0.855084
114.121,0.854961
114.24,0.85485
114.359,0.854747
114.478,0.854643
114.597,0.854543
114.716,0.85445
114.835,0.854353
114.954,0.854264
115.073,0.854172
115.192,0.85408
115.311,0.853994
115.43,0.853912
115.549,0.853815
115.668,0.853707
115.787,0.853602
115.906,0.853508
116.025,0.85342
116.144,0.853343
116.263,0.85326
116.382,0.853159
116.501,0.853019
116.62,0.852879
116.739,0.852749
116.858,0.852619
116.977,0.852508
117.096,0.852386
117.215,0.852274
117.334,0.852166
117.453,0.85205
117.572,0.851935
117.691,0.851833
117.81,0.851705
117.929,0.851585
118.048,0.85148
118.167,0.851372
118.286,0.851261
118.405,0.851119
118.524,0.851003
118.643,0.850872
118.762,0.850763
118.881,0.850675
119,0.850566
119.119,0.850458
119.238,0.850335
119.357,0.850212
119.476,0.850105
119.595,0.850014
119.714,0.849898
119.833,0.849768
119.952,0.849645
120.071,0.849526
120.19,0.849413
120.309,0.849325
120.428,0.849227
120.547,0.849116
120.666,0.849002
120.785,0.848874
120.904,0.848734
121.023,0.848596
121.142,0.848474
121.261,0.848357
121.38,0.848239
121.499,0.848109
121.618,0.847973
121.737,0.84784
121.856,0.847704
121.975,0.847586
122.094,0.847423
122.213,0.847251
122.332,0.847101
122.451,0.846953
122.57,0.846831
122.689,0.846693
122.808,0.846548
122.927,0.846413
123.046,0.846291
123.165,0.846182
123.284,0.846066
123.403,0.845946
123.522,0.845825
123.641,0.84571
123.76,0.845606
123.879,0.845518
123.998,0.845428
124.117,0.845355
124.236,0.845283
124.355,0.84519
124.474,0.845121
124.593,0.845047
124.712,0.844998
124.831,0.844948
124.95,0.844879
125.069,0.844805
125.188,0.844757
125.307,0.844726
125.426,0.844682
125.545,0.844632
125.664,0.84458
125.783,0.844497
125.902,0.844427
126.021,0.844367
126.14,0.8443
126.259,0.844252
126.378,0.844207
126.497,0.844159
126.616,0.844101
126.735,0.844042
126.854,0.843974
126.973,0.843904
127.092,0.843808
127.211,0.84369
127.33,0.843558
127.449,0.843435
127.568,0.843344
127.687,0.843253
127.806,0.843142
127.925,0.843005
128.044,0.842858
128.163,0.842722
128.282,0.842583
128.401,0.842445
128.52,0.842287
128.639,0.842126
128.758,0.841975
128.877,0.841833
128.996,0.841701
129.115,0.841574
129.234,0.841446
129.353,0.841316
129.472,0.841189
129.591,0.841048
129.71,0.840908
129.829,0.840764
129.948,0.840603
130.067,0.840429
130.186,0.840262
130.305,0.840101
130.424,0.839944
130.543,0.839769
130.662,0.839584
130.781,0.839386
130.9,0.839209
131.019,0.83904
131.138,0.838877
131.257,0.83872
131.376,0.838569
131.495,0.838417
131.614,0.838257
131.733,0.838098
131.852,0.837934
131.971,0.837765
132.09,0.837598
132.209,0.837429
132.328,0.837255
132.447,0.837062
132.566,0.836869
132.685,0.836675
132.804,0.836488
132.923,0.836308
133.042,0.836123
133.161,0.835939
133.28,0.835759
133.399,0.835568
133.518,0.835384
133.637,0.835229
133.756,0.83506
133.875,0.834887
133.994,0.834721
134.113,0.834547
134.232,0.834376
134.351,0.834202
134.47,0.834015
134.589,0.833823
134.708,0.833625
134.827,0.83343
134.946,0.833238
135.065,0.833047
135.184,0.832848
135.303,0.832645
135.422,0.832451
135.541,0.832264
135.66,0.832065
135.779,0.831859
135.898,0.831653
136.017,0.831447
136.136,0.831259
136.255,0.831086
136.374,0.830921
136.493,0.830748
136.612,0.83057
136.731,0.830391
136.85,0.83021
136.969,0.83003
137.088,0.82985
137.207,0.829661
137.326,0.829492
137.445,0.829317
137.564,0.829131
137.683,0.828937
137.802,0.828741
137.921,0.828559
138.04,0.828376
138.159,0.828191
138.278,0.828006
138.397,0.827805
138.516,0.827595
138.635,0.827366
138.754,0.827135
138.873,0.826927
138.992,0.826717
139.111,0.826486
139.23,0.826267
139.349,0.826038
139.468,0.825805
139.587,0.825568
139.706,0.825335
139.825,0.825112
139.944,0.824889
140.063,0.824679
140.182,0.824478
140.301,0.824292
140.42,0.824099
140.539,0.823881
140.658,0.823635
140.777,0.82341
140.896,0.8232
141.015,0.823012
141.134,0.822847
141.253,0.822701
141.372,0.822543
141.491,0.822385
141.61,0.822233
141.729,0.822069
141.848,0.821916
141.967,0.821776
142.086,0.82163
142.205,0.821482
142.324,0.821333
142.443,0.821186
142.562,0.82104
142.681,0.820897
142.8,0.820722
142.919,0.820553
143.038,0.82038
143.157,0.820207
143.276,0.820025
143.395,0.819839
143.514,0.819645
143.633,0.819436
143.752,0.819216
143.871,0.818996
143.99,0.818781
144.109,0.818568
144.228,0.81836
144.347,0.818112
144.466,0.817858
144.585,0.817584
144.704,0.817304
144.823,0.817035
144.942,0.816782
145.061,0.81654
145.18,0.816294
145.299,0.816057
145.418,0.815848
145.537,0.815639
145.656,0.815409
145.775,0.815174
145.894,0.814932
146.013,0.81475
146.132,0.814596
146.251,0.814444
146.37,0.814301
146.489,0.814138
146.608,0.81396
146.727,0.813771
146.846,0.813604
146.965,0.813432
147.084,0.813261
147.203,0.813103
147.322,0.812943
147.441,0.812774
147.56,0.81262
147.679,0.812476
147.798,0.812328
147.917,0.81218
148.036,0.81203
148.155,0.81187
148.274,0.811725
148.393,0.81158
148.512,0.811434
148.631,0.811275
148.75,0.8111
148.869,0.810901
148.988,0.810707
149.107,0.810491
149.226,0.810279
149.345,0.810054
149.464,0.809817
149.583,0.809572
149.702,0.809319
149.821,0.809083
149.94,0.808849
150.059,0.80863
150.178,0.808413
150.297,0.808194
150.416,0.807977
150.535,0.807759
150.654,0.807548
150.773,0.807341
150.892,0.807108
151.011,0.806879
151.13,0.806661
151.249,0.806442
151.368,0.806225
151.487,0.805989
151.606,0.805738
151.725,0.805481
151.844,0.805237
151.963,0.805009
152.082,0.804774
152.201,0.804521
152.32,0.804274
152.439,0.804038
152.558,0.803802
152.677,0.803566
152.796,0.803327
152.915,0.803114
153.034,0.802915
153.153,0.802696
153.272,0.802473
153.391,0.802246
153.51,0.80202
153.629,0.801792
153.748,0.80155
153.867,0.801296
153.986,0.801048
154.105,0.800801
154.224,0.800551
154.343,0.800297
154.462,0.800034
154.581,0.799781
154.7,0.799526
154.819,0.799261
154.938,0.798994
155.057,0.798734
155.176,0.798472
155.295,0.798209
155.414,0.797937
155.533,0.797678
155.652,0.797426
155.771,0.797178
155.89,0.796924
156.009,0.796667
156.128,0.796395
156.247,0.796124
156.366,0.795855
156.485,0.795578
156.604,0.795291
156.723,0.794995
156.842,0.794689
156.961,0.794396
157.08,0.794109
157.199,0.793833
157.318,0.793529
157.437,0.793195
157.556,0.792872
157.675,0.792552
157.794,0.792231
157.913,0.791911
158.032,0.7916
158.151,0.791287
158.27,0.790978
158.389,0.790649
158.508,0.790327
158.627,0.790005
158.746,0.789683
158.865,0.789343
158.984,0.788998
159.103,0.788681
159.222,0.788374
159.341,0.788058
159.46,0.787722
159.579,0.787394
159.698,0.787063
159.817,0.78674
159.936,0.786441
160.055,0.786145
160.174,0.785855
160.293,0.785558
160.412,0.785244
160.531,0.784927
160.65,0.784622
160.769,0.78439
160.888,0.784139
161.007,0.783833
161.126,0.783563
161.245,0.783361
161.364,0.78307
161.483,0.782814
161.602,0.782595
161.721,0.782362
161.84,0.78211
161.959,0.781838
162.078,0.781525
162.197,0.781182
162.316,0.780789
162.435,0.78035
162.554,0.779829
162.673,0.779258
162.792,0.778658
162.911,0.778028
163.03,0.777367
163.149,0.776692
163.268,0.776004
163.387,0.775283
163.506,0.774525
163.625,0.773754
163.744,0.772965
163.863,0.772166
163.982,0.771338
164.101,0.7705
164.22,0.76966
164.339,0.768867
164.458,0.768075
164.577,0.767251
164.696,0.76642
164.815,0.765596
164.934,0.764793
165.053,0.764015
165.172,0.763259
165.291,0.762526
165.41,0.761784
165.529,0.760962
165.648,0.760182
165.767,0.759458
165.886,0.758818
166.005,0.758209
166.124,0.757623
166.243,0.757027
166.362,0.756521
166.481,0.756072
166.6,0.755577
166.719,0.755111
166.838,0.754711
166.957,0.754296
167.076,0.75384
167.195,0.753394
167.314,0.75295
167.433,0.752508
167.552,0.752097
167.671,0.75164
167.79,0.751178
167.909,0.750706
168.028,0.750244
168.147,0.749763
168.266,0.74931
168.385,0.748869
168.504,0.748442
168.623,0.748003
168.742,0.74758
168.861,0.747153
168.98,0.746741
169.099,0.74633
169.218,0.745945
169.337,0.745589
169.456,0.745248
169.575,0.744925
169.694,0.744603
169.813,0.74424
169.932,0.743879
170.051,0.743517
170.17,0.743164
170.289,0.74283
170.408,0.742494
170.527,0.742151
170.646,0.741794
170.765,0.741394
170.884,0.741028
171.003,0.74071
171.122,0.740389
171.241,0.740045
171.36,0.73969
171.479,0.739359
171.598,0.739023
171.717,0.738673
171.836,0.738347
171.955,0.738028
172.074,0.737708
172.193,0.737405
172.312,0.737105
172.431,0.73681
172.55,0.736491
172.669,0.736164
172.788,0.735823
172.907,0.73544
173.026,0.735025
173.145,0.73459
173.264,0.734165
173.383,0.733732
173.502,0.733323
173.621,0.732916
173.74,0.732499
173.859,0.732065
173.978,0.731634
174.097,0.731196
174.216,0.730745
174.335,0.730313
174.454,0.729896
174.573,0.729491
174.692,0.729086
174.811,0.728672
174.93,0.72827
175.049,0.727877
175.168,0.727474
175.287,0.727104
175.406,0.726738
175.525,0.726387
175.644,0.726048
175.763,0.725713
175.882,0.725373
176.001,0.725027
176.12,0.72469
176.239,0.724359
176.358,0.724033
176.477,0.723719
176.596,0.723414
176.715,0.723115
176.834,0.722829
176.953,0.722558
177.072,0.722307
177.191,0.722061
177.31,0.721786
177.429,0.721534
177.548,0.721285
177.667,0.721023
177.786,0.720759
177.905,0.7205
177.979,0.720348