File: smoothed_normalized_data/40.0mA1msec-0.2mA19msec.csv
Capacity_mAh,Voltage_V
0.0,1.0
0.106458,0.992684
0.212917,0.985852
0.319375,0.979489
0.425834,0.973578
0.532292,0.968102
0.638751,0.963044
0.745209,0.958389
0.851668,0.954119
0.958126,0.950218
1.06458,0.94667
1.17104,0.943458
1.2775,0.940565
1.38396,0.937975
1.49042,0.935672
1.59688,0.933638
1.70334,0.931858
1.80979,0.930315
1.91625,0.928992
2.02271,0.927873
2.12917,0.926941
2.23563,0.92618
2.34209,0.925573
2.44855,0.92545
2.555,0.925123
2.66146,0.924732
2.76792,0.924335
2.87438,0.923957
2.98084,0.923607
3.0873,0.923288
3.19375,0.923004
3.30021,0.922756
3.40667,0.922541
3.51313,0.922357
3.61959,0.922201
3.72605,0.922071
3.83251,0.921956
3.93896,0.921854
4.04542,0.92176
4.15188,0.921675
4.25834,0.921596
4.3648,0.921522
4.47126,0.921459
4.57772,0.921399
4.68417,0.921331
4.79063,0.921259
4.89709,0.921192
5.00355,0.921132
5.11001,0.921076
5.21647,0.921018
5.32292,0.920961
5.42938,0.920906
5.53584,0.920854
5.6423,0.92081
5.74876,0.92076
5.85522,0.920705
5.96168,0.920661
6.06813,0.920623
6.17459,0.920586
6.28105,0.920549
6.38751,0.920517
6.49397,0.920487
6.60043,0.920451
6.70689,0.920412
6.81334,0.920376
6.9198,0.920339
7.02626,0.920298
7.13272,0.92026
7.23918,0.920223
7.34564,0.920191
7.45209,0.920152
7.55855,0.920118
7.66501,0.920087
7.77147,0.920077
7.87793,0.920065
7.98439,0.920043
8.09085,0.920016
8.1973,0.919986
8.30376,0.919954
8.41022,0.91992
8.51668,0.919886
8.62314,0.91986
8.7296,0.919834
8.83606,0.919819
8.94251,0.919793
9.04897,0.919753
9.15543,0.919709
9.26189,0.919647
9.36835,0.919601
9.47481,0.919556
9.58126,0.919514
9.68772,0.919473
9.79418,0.919424
9.90064,0.91938
10.0071,0.919347
10.1136,0.919327
10.22,0.91932
10.3265,0.919302
10.4329,0.919281
10.5394,0.919254
10.6458,0.919229
10.7523,0.919191
10.8588,0.919159
10.9652,0.919135
11.0717,0.91911
11.1781,0.919093
11.2846,0.919082
11.3911,0.919052
11.4975,0.919032
11.604,0.919014
11.7104,0.91898
11.8169,0.918942
11.9234,0.918892
12.0298,0.918839
12.1363,0.918807
12.2427,0.918775
12.3492,0.91873
12.4556,0.918678
12.5621,0.918632
12.6686,0.918601
12.775,0.918585
12.8815,0.918564
12.9879,0.918555
13.0944,0.918538
13.2009,0.918532
13.3073,0.91854
13.4138,0.918526
13.5202,0.918502
13.6267,0.918476
13.7331,0.918459
13.8396,0.918429
13.9461,0.918397
14.0525,0.918367
14.159,0.918344
14.2654,0.918346
14.3719,0.918326
14.4784,0.918324
14.5848,0.918333
14.6913,0.918348
14.7977,0.918354
14.9042,0.918355
15.0106,0.918359
15.1171,0.918376
15.2236,0.918387
15.33,0.918383
15.4365,0.918375
15.5429,0.918364
15.6494,0.918355
15.7559,0.918342
15.8623,0.918314
15.9688,0.918277
16.0752,0.918253
16.1817,0.918238
16.2881,0.918242
16.3946,0.918255
16.5011,0.918244
16.6075,0.918254
16.714,0.918267
16.8204,0.918261
16.9269,0.918254
17.0334,0.918259
17.1398,0.918272
17.2463,0.91828
17.3527,0.918274
17.4592,0.918259
17.5657,0.918243
17.6721,0.918231
17.7786,0.918233
17.885,0.918241
17.9915,0.91823
18.0979,0.918212
18.2044,0.918203
18.3109,0.918194
18.4173,0.91819
18.5238,0.918194
18.6302,0.91822
18.7367,0.918253
18.8432,0.918289
18.9496,0.918321
19.0561,0.918368
19.1625,0.918418
19.269,0.918476
19.3754,0.91853
19.4819,0.918587
19.5884,0.918642
19.6948,0.918685
19.8013,0.918714
19.9077,0.918736
20.0142,0.918764
20.1207,0.918806
20.2271,0.918852
20.3336,0.918904
20.44,0.918957
20.5465,0.919017
20.6529,0.919086
20.7594,0.919169
20.8659,0.919244
20.9723,0.91928
21.0788,0.919287
21.1852,0.919297
21.2917,0.919289
21.3982,0.919259
21.5046,0.919235
21.6111,0.919183
21.7175,0.919108
21.824,0.919031
21.9305,0.918955
22.0369,0.918901
22.1434,0.918884
22.2498,0.918874
22.3563,0.918852
22.4627,0.918832
22.5692,0.918809
22.6757,0.918757
22.7821,0.918643
22.8886,0.918522
22.995,0.91841
23.1015,0.918306
23.208,0.918218
23.3144,0.918145
23.4209,0.918088
23.5273,0.918036
23.6338,0.917999
23.7402,0.917971
23.8467,0.917948
23.9532,0.917926
24.0596,0.917907
24.1661,0.917891
24.2725,0.917891
24.379,0.917905
24.4855,0.917923
24.5919,0.91795
24.6984,0.917987
24.8048,0.918032
24.9113,0.918079
25.0177,0.918122
25.1242,0.918164
25.2307,0.918206
25.3371,0.918242
25.4436,0.918271
25.55,0.91829
25.6565,0.918323
25.763,0.918355
25.8694,0.918379
25.9759,0.918397
26.0823,0.918403
26.1888,0.918383
26.2952,0.918395
26.4017,0.918423
26.5082,0.918464
26.6146,0.918503
26.7211,0.918538
26.8275,0.91853
26.934,0.918501
27.0405,0.918454
27.1469,0.918371
27.2534,0.918254
27.3598,0.918105
27.4663,0.917983
27.5728,0.917903
27.6792,0.917841
27.7857,0.917786
27.8921,0.91774
27.9986,0.917697
28.105,0.917648
28.2115,0.917605
28.318,0.91756
28.4244,0.917515
28.5309,0.917473
28.6373,0.917441
28.7438,0.91742
28.8503,0.917411
28.9567,0.917405
29.0632,0.917382
29.1696,0.917369
29.2761,0.917363
29.3825,0.917352
29.489,0.917343
29.5955,0.917335
29.7019,0.917331
29.8084,0.917329
29.9148,0.91733
30.0213,0.917331
30.1278,0.917337
30.2342,0.917338
30.3407,0.917339
30.4471,0.917335
30.5536,0.91732
30.66,0.917301
30.7665,0.917283
30.873,0.917279
30.9794,0.917272
31.0859,0.917249
31.1923,0.917222
31.2988,0.917189
31.4053,0.91715
31.5117,0.917115
31.6182,0.917061
31.7246,0.916991
31.8311,0.91693
31.9375,0.916866
32.044,0.916798
32.1505,0.916745
32.2569,0.916695
32.3634,0.916645
32.4698,0.91659
32.5763,0.916542
32.6828,0.916479
32.7892,0.916418
32.8957,0.916355
33.0021,0.9163
33.1086,0.91625
33.2151,0.916204
33.3215,0.916153
33.428,0.916101
33.5344,0.916076
33.6409,0.916052
33.7473,0.916012
33.8538,0.915976
33.9603,0.915921
34.0667,0.915867
34.1732,0.915804
34.2796,0.915739
34.3861,0.915672
34.4926,0.915607
34.599,0.915539
34.7055,0.915468
34.8119,0.915397
34.9184,0.915325
35.0248,0.915248
35.1313,0.915166
35.2378,0.915087
35.3442,0.915014
35.4507,0.914913
35.5571,0.914818
35.6636,0.914724
35.7701,0.914633
35.8765,0.914548
35.983,0.914469
36.0894,0.914395
36.1959,0.914328
36.3023,0.914267
36.4088,0.914214
36.5153,0.914168
36.6217,0.914129
36.7282,0.914094
36.8346,0.914067
36.9411,0.914053
37.0476,0.914044
37.154,0.914045
37.2605,0.914047
37.3669,0.914063
37.4734,0.914091
37.5798,0.914129
37.6863,0.914174
37.7928,0.914222
37.8992,0.914277
38.0057,0.91434
38.1121,0.914407
38.2186,0.914457
38.3251,0.91447
38.4315,0.91448
38.538,0.91449
38.6444,0.914508
38.7509,0.914529
38.8574,0.914553
38.9638,0.914576
39.0703,0.914584
39.1767,0.914593
39.2832,0.9146
39.3896,0.914601
39.4961,0.914597
39.6026,0.914587
39.709,0.914562
39.8155,0.914526
39.9219,0.914478
40.0284,0.914427
40.1349,0.914385
40.2413,0.914356
40.3478,0.914332
40.4542,0.914308
40.5607,0.914285
40.6671,0.914256
40.7736,0.914231
40.8801,0.914205
40.9865,0.914181
41.093,0.914159
41.1994,0.91413
41.3059,0.914101
41.4124,0.914073
41.5188,0.914049
41.6253,0.914026
41.7317,0.914002
41.8382,0.913977
41.9446,0.913958
42.0511,0.913941
42.1576,0.913921
42.264,0.913899
42.3705,0.913875
42.4769,0.913849
42.5834,0.913822
42.6899,0.913793
42.7963,0.913763
42.9028,0.913731
43.0092,0.913699
43.1157,0.91367
43.2221,0.913656
43.3286,0.913639
43.4351,0.913619
43.5415,0.913597
43.648,0.913571
43.7544,0.913551
43.8609,0.913531
43.9674,0.913503
44.0738,0.913471
44.1803,0.913442
44.2867,0.913408
44.3932,0.913374
44.4997,0.913352
44.6061,0.913338
44.7126,0.913324
44.819,0.913307
44.9255,0.913284
45.0319,0.913255
45.1384,0.913226
45.2449,0.913198
45.3513,0.913171
45.4578,0.913144
45.5642,0.913116
45.6707,0.913083
45.7772,0.913046
45.8836,0.91301
45.9901,0.912972
46.0965,0.912934
46.203,0.912895
46.3094,0.912857
46.4159,0.912815
46.5224,0.912771
46.6288,0.912725
46.7353,0.912674
46.8417,0.912619
46.9482,0.912564
47.0547,0.912504
47.1611,0.912445
47.2676,0.912384
47.374,0.912322
47.4805,0.912255
47.5869,0.912189
47.6934,0.912125
47.7999,0.912063
47.9063,0.911999
48.0128,0.911937
48.1192,0.911874
48.2257,0.911806
48.3322,0.911741
48.4386,0.911677
48.5451,0.911613
48.6515,0.911548
48.758,0.911486
48.8644,0.911423
48.9709,0.911356
49.0774,0.911291
49.1838,0.911227
49.2903,0.911162
49.3967,0.911098
49.5032,0.911034
49.6097,0.910975
49.7161,0.910922
49.8226,0.910867
49.929,0.910814
50.0355,0.910762
50.142,0.910708
50.2484,0.910652
50.3549,0.910597
50.4613,0.910541
50.5678,0.910487
50.6742,0.910429
50.7807,0.910374
50.8872,0.910319
50.9936,0.910263
51.1001,0.910208
51.2065,0.910156
51.313,0.910102
51.4195,0.910053
51.5259,0.910001
51.6324,0.90995
51.7388,0.909901
51.8453,0.909851
51.9517,0.909802
52.0582,0.909755
52.1647,0.909711
52.2711,0.909669
52.3776,0.909624
52.484,0.909579
52.5905,0.909532
52.697,0.909484
52.8034,0.909438
52.9099,0.909397
53.0163,0.909358
53.1228,0.909313
53.2292,0.909268
53.3357,0.909225
53.4422,0.909185
53.5486,0.909147
53.6551,0.909113
53.7615,0.90908
53.868,0.909045
53.9745,0.909014
54.0809,0.908983
54.1874,0.908954
54.2938,0.908927
54.4003,0.908902
54.5067,0.908873
54.6132,0.908839
54.7197,0.908808
54.8261,0.908777
54.9326,0.908747
55.039,0.908715
55.1455,0.908679
55.252,0.908646
55.3584,0.908611
55.4649,0.908579
55.5713,0.908547
55.6778,0.908515
55.7843,0.908485
55.8907,0.908455
55.9972,0.908427
56.1036,0.908398
56.2101,0.908368
56.3165,0.908337
56.423,0.908305
56.5295,0.908275
56.6359,0.908246
56.7424,0.908215
56.8488,0.908184
56.9553,0.90815
57.0618,0.908114
57.1682,0.908076
57.2747,0.90804
57.3811,0.908008
57.4876,0.907975
57.594,0.907941
57.7005,0.907904
57.807,0.907869
57.9134,0.907833
58.0199,0.907799
58.1263,0.907765
58.2328,0.907732
58.3393,0.9077
58.4457,0.907665
58.5522,0.90763
58.6586,0.907595
58.7651,0.907565
58.8715,0.907535
58.978,0.907505
59.0845,0.90747
59.1909,0.907437
59.2974,0.90741
59.4038,0.907381
59.5103,0.907351
59.6168,0.907318
59.7232,0.907284
59.8297,0.907254
59.9361,0.907227
60.0426,0.907199
60.1491,0.907171
60.2555,0.907148
60.362,0.907126
60.4684,0.907106
60.5749,0.907088
60.6813,0.907069
60.7878,0.907045
60.8943,0.907023
61.0007,0.907001
61.1072,0.906978
61.2136,0.906955
61.3201,0.906926
61.4266,0.9069
61.533,0.906869
61.6395,0.90684
61.7459,0.906813
61.8524,0.906788
61.9588,0.906762
62.0653,0.906735
62.1718,0.906704
62.2782,0.906672
62.3847,0.906637
62.4911,0.906594
62.5976,0.906553
62.7041,0.906513
62.8105,0.90647
62.917,0.906428
63.0234,0.906384
63.1299,0.906339
63.2363,0.906294
63.3428,0.90625
63.4493,0.906205
63.5557,0.906159
63.6622,0.906114
63.7686,0.90607
63.8751,0.906022
63.9816,0.905972
64.088,0.905921
64.1945,0.905864
64.3009,0.905807
64.4074,0.905754
64.5138,0.905699
64.6203,0.90564
64.7268,0.905581
64.8332,0.905525
64.9397,0.905466
65.0461,0.905406
65.1526,0.905344
65.2591,0.905284
65.3655,0.905226
65.472,0.905169
65.5784,0.905111
65.6849,0.905053
65.7914,0.904994
65.8978,0.904935
66.0043,0.904879
66.1107,0.904825
66.2172,0.904771
66.3236,0.904719
66.4301,0.904661
66.5366,0.904602
66.643,0.904544
66.7495,0.904489
66.8559,0.904435
66.9624,0.904378
67.0689,0.904318
67.1753,0.904259
67.2818,0.904206
67.3882,0.904154
67.4947,0.904103
67.6011,0.904052
67.7076,0.904
67.8141,0.90395
67.9205,0.903901
68.027,0.903851
68.1334,0.9038
68.2399,0.903751
68.3464,0.903703
68.4528,0.903655
68.5593,0.903602
68.6657,0.903553
68.7722,0.9035
68.8786,0.903449
68.9851,0.903398
69.0916,0.903344
69.198,0.90329
69.3045,0.903232
69.4109,0.903176
69.5174,0.903118
69.6239,0.903058
69.7303,0.902998
69.8368,0.902941
69.9432,0.902883
70.0497,0.902823
70.1561,0.90276
70.2626,0.902696
70.3691,0.902632
70.4755,0.902569
70.582,0.902505
70.6884,0.902442
70.7949,0.902375
70.9014,0.902311
71.0078,0.902244
71.1143,0.902178
71.2207,0.902115
71.3272,0.902054
71.4337,0.90199
71.5401,0.901926
71.6466,0.901861
71.753,0.901799
71.8595,0.901739
71.9659,0.901681
72.0724,0.901622
72.1789,0.901565
72.2853,0.90151
72.3918,0.901456
72.4982,0.901398
72.6047,0.901347
72.7112,0.901292
72.8176,0.901242
72.9241,0.901194
73.0305,0.90114
73.137,0.901085
73.2434,0.901031
73.3499,0.900972
73.4564,0.900913
73.5628,0.900851
73.6693,0.900789
73.7757,0.900728
73.8822,0.900667
73.9887,0.900607
74.0951,0.900544
74.2016,0.900478
74.308,0.900415
74.4145,0.900354
74.5209,0.900293
74.6274,0.900233
74.7339,0.900171
74.8403,0.90011
74.9468,0.900051
75.0532,0.899994
75.1597,0.899937
75.2662,0.899879
75.3726,0.899822
75.4791,0.899767
75.5855,0.899712
75.692,0.899659
75.7984,0.899609
75.9049,0.899562
76.0114,0.899514
76.1178,0.899469
76.2243,0.899424
76.3307,0.899383
76.4372,0.899345
76.5437,0.899309
76.6501,0.899273
76.7566,0.899236
76.863,0.8992
76.9695,0.899166
77.076,0.89913
77.1824,0.899099
77.2889,0.899063
77.3953,0.899026
77.5018,0.898995
77.6082,0.898961
77.7147,0.898926
77.8212,0.898894
77.9276,0.89886
78.0341,0.898826
78.1405,0.898793
78.247,0.898759
78.3535,0.898727
78.4599,0.898693
78.5664,0.898658
78.6728,0.89862
78.7793,0.898581
78.8857,0.898543
78.9922,0.898504
79.0987,0.898466
79.2051,0.898422
79.3116,0.898376
79.418,0.898331
79.5245,0.898286
79.631,0.898239
79.7374,0.898191
79.8439,0.898143
79.9503,0.898096
80.0568,0.89805
80.1632,0.898004
80.2697,0.897958
80.3762,0.897913
80.4826,0.897868
80.5891,0.897822
80.6955,0.897777
80.802,0.897733
80.9085,0.897688
81.0149,0.897643
81.1214,0.897592
81.2278,0.897544
81.3343,0.897496
81.4407,0.897452
81.5472,0.89741
81.6537,0.897367
81.7601,0.897323
81.8666,0.897278
81.973,0.897234
82.0795,0.897188
82.186,0.897143
82.2924,0.897098
82.3989,0.897052
82.5053,0.897002
82.6118,0.896952
82.7183,0.896901
82.8247,0.896849
82.9312,0.896797
83.0376,0.896745
83.1441,0.896696
83.2505,0.896643
83.357,0.896592
83.4635,0.896542
83.5699,0.896492
83.6764,0.896442
83.7828,0.896387
83.8893,0.896335
83.9958,0.896283
84.1022,0.896231
84.2087,0.896177
84.3151,0.896126
84.4216,0.896074
84.528,0.89602
84.6345,0.895966
84.741,0.89591
84.8474,0.895856
84.9539,0.895801
85.0603,0.895748
85.1668,0.895698
85.2733,0.895652
85.3797,0.895603
85.4862,0.895554
85.5926,0.895505
85.6991,0.895458
85.8055,0.895414
85.912,0.895372
86.0185,0.895333
86.1249,0.895297
86.2314,0.895258
86.3378,0.895217
86.4443,0.895175
86.5508,0.895128
86.6572,0.895084
86.7637,0.895045
86.8701,0.895007
86.9766,0.894966
87.083,0.894926
87.1895,0.89489
87.296,0.89485
87.4024,0.89481
87.5089,0.894774
87.6153,0.894741
87.7218,0.894713
87.8283,0.894682
87.9347,0.894655
88.0412,0.894623
88.1476,0.894591
88.2541,0.894561
88.3606,0.894528
88.467,0.894494
88.5735,0.894465
88.6799,0.894435
88.7864,0.894403
88.8928,0.894366
88.9993,0.894331
89.1058,0.894296
89.2122,0.894264
89.3187,0.894233
89.4251,0.894199
89.5316,0.894165
89.6381,0.894132
89.7445,0.8941
89.851,0.894066
89.9574,0.89403
90.0639,0.893992
90.1703,0.893954
90.2768,0.893909
90.3833,0.893858
90.4897,0.8938
90.5962,0.893738
90.7026,0.893671
90.8091,0.893595
90.9156,0.893518
91.022,0.893438
91.1285,0.893358
91.2349,0.893278
91.3414,0.893199
91.4478,0.893114
91.5543,0.893031
91.6608,0.892953
91.7672,0.892871
91.8737,0.892779
91.9801,0.892683
92.0866,0.892595
92.1931,0.892511
92.2995,0.892435
92.406,0.892356
92.5124,0.892276
92.6189,0.892207
92.7253,0.892145
92.8318,0.892086
92.9383,0.892037
93.0447,0.891975
93.1512,0.891909
93.2576,0.891845
93.3641,0.891788
93.4706,0.891736
93.577,0.891693
93.6835,0.891652
93.7899,0.89161
93.8964,0.891568
94.0029,0.891524
94.1093,0.891486
94.2158,0.891453
94.3222,0.891423
94.4287,0.891395
94.5351,0.891365
94.6416,0.891334
94.7481,0.891303
94.8545,0.891268
94.961,0.891234
95.0674,0.891194
95.1739,0.891157
95.2804,0.891122
95.3868,0.891086
95.4933,0.891048
95.5997,0.891009
95.7062,0.890968
95.8126,0.890921
95.9191,0.890874
96.0256,0.890822
96.132,0.890764
96.2385,0.890701
96.3449,0.890625
96.4514,0.890553
96.5579,0.890477
96.6643,0.89041
96.7708,0.890345
96.8772,0.890279
96.9837,0.890211
97.0901,0.890141
97.1966,0.890079
97.3031,0.890009
97.4095,0.889929
97.516,0.889849
97.6224,0.889754
97.7289,0.889663
97.8354,0.889586
97.9418,0.88952
98.0483,0.889453
98.1547,0.889384
98.2612,0.889313
98.3677,0.889243
98.4741,0.889175
98.5806,0.889115
98.687,0.889064
98.7935,0.889017
98.8999,0.888975
99.0064,0.888939
99.1129,0.888903
99.2193,0.888858
99.3258,0.888816
99.4322,0.888771
99.5387,0.888721
99.6452,0.888674
99.7516,0.888623
99.8581,0.88857
99.9645,0.888516
100.071,0.888457
100.177,0.888403
100.284,0.888347
100.39,0.888289
100.497,0.888231
100.603,0.888174
100.71,0.888118
100.816,0.888049
100.923,0.887986
101.029,0.88792
101.136,0.887848
101.242,0.887768
101.348,0.887703
101.455,0.887636
101.561,0.887561
101.668,0.887485
101.774,0.887394
101.881,0.887292
101.987,0.887188
102.094,0.88708
102.2,0.886972
102.307,0.886867
102.413,0.886765
102.52,0.886659
102.626,0.886555
102.732,0.886452
102.839,0.886355
102.945,0.886258
103.052,0.886161
103.158,0.886075
103.265,0.885987
103.371,0.885892
103.478,0.885805
103.584,0.88572
103.691,0.88563
103.797,0.885544
103.903,0.885465
104.01,0.885395
104.116,0.885334
104.223,0.885284
104.329,0.885231
104.436,0.885186
104.542,0.885148
104.649,0.885119
104.755,0.885098
104.862,0.88508
104.968,0.88507
105.075,0.88507
105.181,0.885063
105.287,0.88506
105.394,0.885046
105.5,0.885033
105.607,0.885013
105.713,0.885009
105.82,0.885004
105.926,0.885011
106.033,0.885008
106.139,0.884961
106.246,0.884911
106.352,0.884841
106.458,0.88477
106.565,0.884698
106.671,0.884633
106.778,0.884591
106.884,0.884511
106.991,0.884442
107.097,0.88441
107.204,0.884384
107.31,0.884351
107.417,0.884322
107.523,0.884278
107.63,0.884235
107.736,0.88419
107.842,0.884138
107.949,0.884082
108.055,0.884035
108.162,0.883992
108.268,0.883946
108.375,0.883904
108.481,0.883868
108.588,0.88383
108.694,0.883795
108.801,0.883758
108.907,0.883739
109.013,0.883704
109.12,0.883675
109.226,0.883633
109.333,0.883591
109.439,0.883549
109.546,0.8835
109.652,0.883443
109.759,0.883374
109.865,0.883318
109.972,0.883285
110.078,0.883235
110.185,0.883186
110.291,0.883146
110.397,0.883101
110.504,0.883032
110.61,0.882925
110.717,0.882783
110.823,0.882669
110.93,0.882537
111.036,0.88242
111.143,0.882311
111.249,0.88221
111.356,0.882102
111.462,0.881979
111.569,0.881869
111.675,0.881786
111.781,0.881672
111.888,0.881547
111.994,0.88143
112.101,0.881318
112.207,0.881199
112.314,0.881077
112.42,0.880947
112.527,0.880814
112.633,0.880698
112.74,0.880589
112.846,0.880485
112.952,0.880377
113.059,0.880283
113.165,0.880199
113.272,0.880118
113.378,0.880034
113.485,0.879945
113.591,0.87984
113.698,0.879731
113.804,0.879637
113.911,0.879536
114.017,0.87944
114.124,0.879349
114.23,0.879272
114.336,0.879212
114.443,0.87917
114.549,0.879113
114.656,0.87904
114.762,0.878985
114.869,0.878908
114.975,0.878807
115.082,0.878695
115.188,0.878565
115.295,0.878446
115.401,0.878327
115.507,0.878193
115.614,0.878063
115.72,0.877936
115.827,0.877806
115.933,0.877672
116.04,0.877548
116.146,0.877423
116.253,0.877301
116.359,0.877183
116.466,0.877074
116.572,0.876963
116.679,0.876846
116.785,0.876716
116.891,0.876581
116.998,0.876452
117.104,0.876335
117.211,0.876232
117.317,0.876137
117.424,0.876046
117.53,0.875957
117.637,0.875876
117.743,0.875795
117.85,0.875705
117.956,0.875613
118.062,0.875522
118.169,0.875461
118.275,0.875403
118.382,0.875332
118.488,0.875257
118.595,0.875171
118.701,0.875096
118.808,0.875014
118.914,0.874921
119.021,0.874812
119.127,0.874705
119.234,0.874612
119.34,0.874519
119.446,0.874411
119.553,0.874306
119.659,0.874207
119.766,0.874115
119.872,0.874017
119.979,0.873922
120.085,0.873831
120.192,0.873722
120.298,0.873627
120.405,0.873545
120.511,0.873456
120.617,0.873375
120.724,0.873288
120.83,0.873211
120.937,0.873147
121.043,0.873074
121.15,0.872998
121.256,0.872929
121.363,0.872861
121.469,0.872794
121.576,0.872741
121.682,0.872696
121.789,0.872672
121.895,0.87264
122.001,0.872588
122.108,0.87254
122.214,0.872501
122.321,0.872449
122.427,0.872411
122.534,0.872346
122.64,0.872284
122.747,0.872234
122.853,0.872189
122.96,0.872108
123.066,0.872026
123.172,0.871938
123.279,0.871855
123.385,0.87177
123.492,0.871673
123.598,0.871589
123.705,0.871525
123.811,0.871468
123.918,0.871408
124.024,0.871344
124.131,0.871296
124.237,0.871251
124.344,0.871212
124.45,0.871175
124.556,0.871142
124.663,0.871108
124.769,0.871067
124.876,0.871052
124.982,0.871035
125.089,0.871013
125.195,0.870996
125.302,0.870984
125.408,0.870968
125.515,0.870952
125.621,0.870937
125.727,0.870921
125.834,0.870907
125.94,0.870891
126.047,0.870877
126.153,0.870881
126.26,0.870864
126.366,0.870838
126.473,0.870801
126.579,0.87075
126.686,0.870719
126.792,0.870674
126.899,0.870609
127.005,0.870525
127.111,0.870431
127.218,0.870347
127.324,0.870274
127.431,0.870192
127.537,0.870066
127.644,0.869952
127.75,0.869852
127.857,0.869759
127.963,0.869647
128.07,0.869516
128.176,0.869394
128.282,0.86928
128.389,0.869167
128.495,0.86905
128.602,0.868942
128.708,0.86884
128.815,0.868748
128.921,0.868658
129.028,0.868569
129.134,0.868486
129.241,0.868405
129.347,0.868328
129.454,0.868256
129.56,0.868176
129.666,0.868098
129.773,0.868018
129.879,0.867945
129.986,0.867866
130.092,0.867793
130.199,0.867726
130.305,0.867663
130.412,0.867604
130.518,0.867551
130.625,0.867499
130.731,0.867439
130.837,0.867374
130.944,0.867306
131.05,0.86725
131.157,0.867195
131.263,0.867121
131.37,0.867029
131.476,0.866946
131.583,0.866859
131.689,0.86678
131.796,0.866717
131.902,0.866651
132.009,0.86658
132.115,0.866513
132.221,0.866442
132.328,0.86637
132.434,0.866295
132.541,0.8662
132.647,0.866104
132.754,0.866023
132.86,0.865954
132.967,0.865884
133.073,0.865804
133.18,0.865729
133.286,0.865662
133.392,0.865598
133.499,0.865536
133.605,0.865469
133.712,0.865405
133.818,0.865335
133.925,0.865264
134.031,0.86519
134.138,0.865122
134.244,0.865056
134.351,0.864958
134.457,0.864864
134.564,0.864762
134.67,0.864654
134.776,0.864557
134.883,0.864455
134.989,0.864346
135.096,0.864215
135.202,0.864065
135.309,0.863901
135.415,0.86374
135.522,0.863589
135.628,0.863423
135.735,0.863247
135.841,0.863065
135.947,0.862896
136.054,0.862731
136.16,0.862566
136.267,0.862408
136.373,0.862275
136.48,0.862134
136.586,0.861987
136.693,0.861837
136.799,0.861688
136.906,0.861567
137.012,0.861445
137.119,0.86133
137.225,0.861213
137.331,0.861099
137.438,0.860971
137.544,0.860843
137.651,0.860725
137.757,0.860616
137.864,0.860527
137.97,0.860457
138.077,0.860396
138.183,0.860309
138.29,0.860222
138.396,0.860149
138.503,0.860086
138.609,0.860033
138.715,0.859993
138.822,0.859929
138.928,0.859848
139.035,0.859774
139.141,0.859699
139.248,0.859616
139.354,0.859546
139.461,0.859454
139.567,0.859346
139.674,0.859229
139.78,0.859111
139.886,0.859003
139.993,0.858896
140.099,0.858802
140.206,0.85867
140.312,0.858537
140.419,0.858405
140.525,0.858284
140.632,0.858152
140.738,0.858021
140.845,0.857907
140.951,0.857788
141.058,0.857661
141.164,0.85753
141.27,0.857399
141.377,0.857271
141.483,0.857152
141.59,0.857041
141.696,0.856929
141.803,0.856826
141.909,0.856727
142.016,0.856643
142.122,0.856573
142.229,0.856503
142.335,0.856424
142.441,0.85635
142.548,0.856278
142.654,0.856204
142.761,0.85611
142.867,0.856041
142.974,0.855968
143.08,0.855897
143.187,0.855834
143.293,0.855769
143.4,0.855686
143.506,0.855602
143.613,0.855513
143.719,0.855423
143.825,0.855323
143.932,0.855202
144.038,0.855077
144.145,0.854954
144.251,0.854833
144.358,0.854715
144.464,0.854586
144.571,0.854445
144.677,0.854305
144.784,0.854148
144.89,0.853988
144.996,0.853844
145.103,0.853706
145.209,0.853569
145.316,0.853455
145.422,0.853331
145.529,0.853204
145.635,0.853088
145.742,0.852996
145.848,0.852925
145.955,0.852862
146.061,0.852806
146.168,0.85276
146.274,0.852707
146.38,0.852618
146.487,0.852529
146.593,0.85244
146.7,0.85234
146.806,0.852243
146.913,0.852152
147.019,0.852095
147.126,0.852045
147.232,0.851964
147.339,0.851868
147.445,0.851761
147.551,0.85164
147.658,0.851508
147.764,0.85138
147.871,0.851233
147.977,0.851058
148.084,0.850884
148.19,0.850715
148.297,0.850544
148.403,0.850369
148.51,0.850187
148.616,0.850027
148.723,0.849893
148.829,0.849761
148.935,0.849612
149.042,0.849449
149.148,0.849274
149.255,0.849103
149.361,0.848928
149.468,0.848765
149.574,0.848625
149.681,0.848475
149.787,0.848321
149.894,0.848179
150,0.848054
150.106,0.847939
150.213,0.847833
150.319,0.847729
150.426,0.84761
150.532,0.847475
150.639,0.847333
150.745,0.84718
150.852,0.847001
150.958,0.846828
151.065,0.846663
151.171,0.8465
151.278,0.846323
151.384,0.84615
151.49,0.845987
151.597,0.845812
151.703,0.845613
151.81,0.845396
151.916,0.845185
152.023,0.844984
152.129,0.844777
152.236,0.844551
152.342,0.844345
152.449,0.84412
152.555,0.843873
152.661,0.843665
152.768,0.843462
152.874,0.843279
152.981,0.843109
153.087,0.842963
153.194,0.842854
153.3,0.842735
153.407,0.842635
153.513,0.842523
153.62,0.842424
153.726,0.842321
153.833,0.842236
153.939,0.842167
154.045,0.842101
154.152,0.842038
154.258,0.841956
154.365,0.841892
154.471,0.841836
154.578,0.841782
154.684,0.841725
154.791,0.841664
154.897,0.84159
155.004,0.841507
155.11,0.841435
155.216,0.841353
155.323,0.841262
155.429,0.841152
155.536,0.841034
155.642,0.840912
155.749,0.840785
155.855,0.840652
155.962,0.840515
156.068,0.840373
156.175,0.840226
156.281,0.840073
156.388,0.839916
156.494,0.839755
156.6,0.839588
156.707,0.839416
156.813,0.83924
156.92,0.839059
157.026,0.838873
157.133,0.838683
157.239,0.838488
157.346,0.838288
157.452,0.838084
157.559,0.837875
157.665,0.837661
157.695,0.837599