File: smoothed_normalized_data/40.0mA2msec-0.2mA18msec.csv
Capacity_mAh,Voltage_V
0.0,1.0
0.0870835,0.996034
0.174167,0.992193
0.26125,0.988476
0.348334,0.984881
0.435417,0.981405
0.522501,0.978046
0.609584,0.974804
0.696668,0.971675
0.783751,0.968657
0.870835,0.96575
0.957918,0.96295
1.045,0.960256
1.13209,0.957666
1.21917,0.955178
1.30625,0.95279
1.39334,0.9505
1.48042,0.948306
1.5675,0.946207
1.65459,0.944199
1.74167,0.942282
1.82875,0.940453
1.91584,0.93871
2.00292,0.937052
2.09,0.935476
2.17709,0.933981
2.26417,0.932564
2.35125,0.931224
2.43834,0.929958
2.52542,0.928765
2.6125,0.927642
2.69959,0.926588
2.78667,0.925601
2.87375,0.924679
2.96084,0.92382
3.04792,0.923021
3.135,0.922282
3.22209,0.921599
3.30917,0.920972
3.39626,0.920397
3.48334,0.919874
3.57042,0.9194
3.65751,0.918973
3.74459,0.918592
3.83167,0.918253
3.91876,0.917956
4.00584,0.917699
4.09292,0.917479
4.18001,0.917294
4.26709,0.917143
4.35417,0.917023
4.44126,0.916933
4.52834,0.917033
4.61542,0.917271
4.70251,0.917373
4.78959,0.917423
4.87667,0.917439
4.96376,0.917426
5.05084,0.917391
5.13792,0.917337
5.22501,0.91727
5.31209,0.917191
5.39917,0.917104
5.48626,0.917006
5.57334,0.916901
5.66043,0.916787
5.74751,0.916668
5.83459,0.916541
5.92168,0.916408
6.00876,0.916266
6.09584,0.916119
6.18293,0.915967
6.27001,0.915812
6.35709,0.915655
6.44418,0.915495
6.53126,0.915334
6.61834,0.915173
6.70543,0.915011
6.79251,0.914851
6.87959,0.914694
6.96668,0.914542
7.05376,0.914394
7.14084,0.914249
7.22793,0.914109
7.31501,0.913973
7.40209,0.913841
7.48918,0.913713
7.57626,0.91359
7.66335,0.913469
7.75043,0.913353
7.83751,0.913239
7.9246,0.913129
8.01168,0.913024
8.09876,0.912923
8.18585,0.912826
8.27293,0.912734
8.36001,0.912645
8.4471,0.912559
8.53418,0.912477
8.62126,0.912398
8.70835,0.912323
8.79543,0.912251
8.88251,0.912183
8.9696,0.912119
9.05668,0.912055
9.14376,0.911994
9.23085,0.911936
9.31793,0.911879
9.40501,0.911826
9.4921,0.911777
9.57918,0.911731
9.66626,0.911687
9.75335,0.911644
9.84043,0.911603
9.92752,0.911563
10.0146,0.911525
10.1017,0.911489
10.1888,0.911455
10.2758,0.911422
10.3629,0.911392
10.45,0.911361
10.5371,0.911332
10.6242,0.911305
10.7113,0.911279
10.7983,0.911255
10.8854,0.911232
10.9725,0.91121
11.0596,0.91119
11.1467,0.911171
11.2338,0.911152
11.3209,0.911133
11.4079,0.911116
11.495,0.911102
11.5821,0.91109
11.6692,0.911079
11.7563,0.911072
11.8434,0.911064
11.9304,0.911058
12.0175,0.911053
12.1046,0.911048
12.1917,0.911043
12.2788,0.91104
12.3659,0.911037
12.4529,0.911034
12.54,0.911031
12.6271,0.911028
12.7142,0.911025
12.8013,0.911022
12.8884,0.911018
12.9754,0.911012
13.0625,0.911007
13.1496,0.911002
13.2367,0.910998
13.3238,0.910992
13.4109,0.910987
13.4979,0.910984
13.585,0.910981
13.6721,0.910977
13.7592,0.910972
13.8463,0.910967
13.9334,0.910961
14.0204,0.910955
14.1075,0.910948
14.1946,0.910942
14.2817,0.910936
14.3688,0.910928
14.4559,0.910921
14.5429,0.910915
14.63,0.910909
14.7171,0.910902
14.8042,0.910895
14.8913,0.910887
14.9784,0.910881
15.0654,0.910874
15.1525,0.910869
15.2396,0.910863
15.3267,0.910857
15.4138,0.910851
15.5009,0.910845
15.5879,0.91084
15.675,0.910835
15.7621,0.910831
15.8492,0.910828
15.9363,0.910824
16.0234,0.910819
16.1104,0.910814
16.1975,0.910809
16.2846,0.910802
16.3717,0.910795
16.4588,0.910789
16.5459,0.910782
16.6329,0.910775
16.72,0.910767
16.8071,0.910757
16.8942,0.91075
16.9813,0.910744
17.0684,0.910737
17.1554,0.91073
17.2425,0.910719
17.3296,0.910709
17.4167,0.910699
17.5038,0.910689
17.5909,0.910677
17.6779,0.910663
17.765,0.910648
17.8521,0.910634
17.9392,0.91062
18.0263,0.910607
18.1134,0.910594
18.2004,0.91058
18.2875,0.910567
18.3746,0.910554
18.4617,0.910539
18.5488,0.910524
18.6359,0.910507
18.7229,0.910491
18.81,0.910474
18.8971,0.910459
18.9842,0.910447
19.0713,0.910433
19.1584,0.910422
19.2454,0.91041
19.3325,0.910397
19.4196,0.910384
19.5067,0.910373
19.5938,0.910362
19.6809,0.910352
19.7679,0.910343
19.855,0.910334
19.9421,0.910326
20.0292,0.910318
20.1163,0.910311
20.2034,0.910307
20.2904,0.910303
20.3775,0.910298
20.4646,0.910294
20.5517,0.910291
20.6388,0.910286
20.7259,0.91028
20.8129,0.910271
20.9,0.910266
20.9871,0.910259
21.0742,0.910252
21.1613,0.910245
21.2484,0.910237
21.3354,0.910228
21.4225,0.910219
21.5096,0.910209
21.5967,0.910199
21.6838,0.910189
21.7709,0.910179
21.858,0.910167
21.945,0.910156
22.0321,0.910144
22.1192,0.910131
22.2063,0.910117
22.2934,0.910103
22.3805,0.910088
22.4675,0.910073
22.5546,0.910055
22.6417,0.910038
22.7288,0.910021
22.8159,0.910002
22.903,0.909983
22.99,0.909964
23.0771,0.909946
23.1642,0.909926
23.2513,0.909906
23.3384,0.909886
23.4255,0.909865
23.5125,0.909843
23.5996,0.909821
23.6867,0.9098
23.7738,0.909779
23.8609,0.909758
23.948,0.909737
24.035,0.909714
24.1221,0.909691
24.2092,0.909666
24.2963,0.909641
24.3834,0.909616
24.4705,0.909592
24.5575,0.909567
24.6446,0.90954
24.7317,0.909512
24.8188,0.909483
24.9059,0.909451
24.993,0.909418
25.08,0.909383
25.1671,0.909349
25.2542,0.909315
25.3413,0.909283
25.4284,0.909247
25.5155,0.90921
25.6025,0.909172
25.6896,0.909136
25.7767,0.909099
25.8638,0.909062
25.9509,0.909024
26.038,0.908985
26.125,0.908944
26.2121,0.908904
26.2992,0.908863
26.3863,0.90882
26.4734,0.908777
26.5605,0.908735
26.6475,0.908694
26.7346,0.908654
26.8217,0.908613
26.9088,0.908572
26.9959,0.908531
27.083,0.908488
27.17,0.908448
27.2571,0.908407
27.3442,0.908365
27.4313,0.908323
27.5184,0.908281
27.6055,0.908241
27.6925,0.908202
27.7796,0.908164
27.8667,0.908126
27.9538,0.908087
28.0409,0.908049
28.128,0.90801
28.215,0.90797
28.3021,0.907932
28.3892,0.907895
28.4763,0.907861
28.5634,0.907827
28.6505,0.907792
28.7375,0.907758
28.8246,0.907725
28.9117,0.907693
28.9988,0.907663
29.0859,0.907634
29.173,0.907604
29.26,0.907575
29.3471,0.907546
29.4342,0.907519
29.5213,0.90749
29.6084,0.907462
29.6955,0.907436
29.7825,0.907411
29.8696,0.907385
29.9567,0.90736
30.0438,0.907336
30.1309,0.907312
30.218,0.907286
30.305,0.90726
30.3921,0.907231
30.4792,0.907204
30.5663,0.907176
30.6534,0.907146
30.7405,0.907117
30.8275,0.907086
30.9146,0.907055
31.0017,0.907022
31.0888,0.906988
31.1759,0.906954
31.263,0.906917
31.35,0.906881
31.4371,0.906844
31.5242,0.906808
31.6113,0.906769
31.6984,0.906728
31.7855,0.906687
31.8725,0.906646
31.9596,0.906605
32.0467,0.906564
32.1338,0.906521
32.2209,0.906479
32.308,0.906436
32.395,0.906393
32.4821,0.906351
32.5692,0.906308
32.6563,0.906262
32.7434,0.906217
32.8305,0.906173
32.9176,0.906128
33.0046,0.906082
33.0917,0.906037
33.1788,0.905993
33.2659,0.90595
33.353,0.905905
33.4401,0.905859
33.5271,0.905816
33.6142,0.905771
33.7013,0.905728
33.7884,0.905685
33.8755,0.905642
33.9626,0.905601
34.0496,0.90556
34.1367,0.905519
34.2238,0.905476
34.3109,0.905433
34.398,0.905389
34.4851,0.905347
34.5721,0.905305
34.6592,0.905262
34.7463,0.90522
34.8334,0.905178
34.9205,0.905136
35.0076,0.905092
35.0946,0.90505
35.1817,0.905008
35.2688,0.904965
35.3559,0.904924
35.443,0.904881
35.5301,0.90484
35.6171,0.904797
35.7042,0.904754
35.7913,0.904711
35.8784,0.904666
35.9655,0.904622
36.0526,0.904577
36.1396,0.904534
36.2267,0.904491
36.3138,0.904448
36.4009,0.904407
36.488,0.904366
36.5751,0.904326
36.6621,0.904286
36.7492,0.904247
36.8363,0.904209
36.9234,0.904173
37.0105,0.904137
37.0976,0.9041
37.1846,0.904066
37.2717,0.904032
37.3588,0.903998
37.4459,0.903963
37.533,0.903928
37.6201,0.903892
37.7071,0.903857
37.7942,0.903821
37.8813,0.903784
37.9684,0.903747
38.0555,0.903709
38.1426,0.90367
38.2296,0.903631
38.3167,0.903592
38.4038,0.903551
38.4909,0.903512
38.578,0.903472
38.6651,0.90343
38.7521,0.903386
38.8392,0.903341
38.9263,0.903294
39.0134,0.903245
39.1005,0.903193
39.1876,0.903141
39.2746,0.903085
39.3617,0.903029
39.4488,0.902973
39.5359,0.902915
39.623,0.902856
39.7101,0.902795
39.7971,0.902733
39.8842,0.902669
39.9713,0.902606
40.0584,0.902543
40.1455,0.902481
40.2326,0.902419
40.3196,0.902356
40.4067,0.902294
40.4938,0.902231
40.5809,0.902169
40.668,0.902109
40.7551,0.902048
40.8421,0.901988
40.9292,0.901928
41.0163,0.901866
41.1034,0.901805
41.1905,0.901745
41.2776,0.901684
41.3646,0.901621
41.4517,0.901557
41.5388,0.901494
41.6259,0.901431
41.713,0.90137
41.8001,0.901311
41.8871,0.901253
41.9742,0.901196
42.0613,0.901138
42.1484,0.901081
42.2355,0.901022
42.3226,0.900964
42.4096,0.900907
42.4967,0.90085
42.5838,0.90079
42.6709,0.900731
42.758,0.900671
42.8451,0.90061
42.9321,0.900548
43.0192,0.900487
43.1063,0.900423
43.1934,0.900362
43.2805,0.9003
43.3676,0.90024
43.4546,0.900181
43.5417,0.900122
43.6288,0.900065
43.7159,0.900007
43.803,0.899948
43.8901,0.899888
43.9772,0.899829
44.0642,0.899768
44.1513,0.899707
44.2384,0.899647
44.3255,0.899585
44.4126,0.899524
44.4997,0.899463
44.5867,0.899401
44.6738,0.899339
44.7609,0.899278
44.848,0.899217
44.9351,0.899155
45.0222,0.899093
45.1092,0.89903
45.1963,0.898967
45.2834,0.898904
45.3705,0.898839
45.4576,0.898774
45.5447,0.898708
45.6317,0.89864
45.7188,0.898572
45.8059,0.898504
45.893,0.898434
45.9801,0.898364
46.0672,0.898293
46.1542,0.898222
46.2413,0.898149
46.3284,0.898075
46.4155,0.898
46.5026,0.897925
46.5897,0.897849
46.6767,0.897771
46.7638,0.897695
46.8509,0.897617
46.938,0.897537
47.0251,0.897457
47.1122,0.897377
47.1992,0.897296
47.2863,0.897214
47.3734,0.897131
47.4605,0.897046
47.5476,0.896961
47.6347,0.896875
47.7217,0.896791
47.8088,0.89671
47.8959,0.896629
47.983,0.896548
48.0701,0.896468
48.1572,0.896389
48.2442,0.89631
48.3313,0.896234
48.4184,0.896159
48.5055,0.896083
48.5926,0.896009
48.6797,0.895936
48.7667,0.895864
48.8538,0.895794
48.9409,0.895725
49.028,0.895654
49.1151,0.895584
49.2022,0.895515
49.2892,0.895445
49.3763,0.895374
49.4634,0.895303
49.5505,0.895234
49.6376,0.895164
49.7247,0.895094
49.8117,0.895024
49.8988,0.894952
49.9859,0.894881
50.073,0.894809
50.1601,0.894736
50.2472,0.894663
50.3342,0.894588
50.4213,0.894515
50.5084,0.894442
50.5955,0.89437
50.6826,0.894299
50.7697,0.894225
50.8567,0.894152
50.9438,0.89408
51.0309,0.894007
51.118,0.893935
51.2051,0.893862
51.2922,0.893791
51.3792,0.89372
51.4663,0.893648
51.5534,0.893577
51.6405,0.893509
51.7276,0.893438
51.8147,0.893369
51.9017,0.8933
51.9888,0.893233
52.0759,0.893167
52.163,0.8931
52.2501,0.893033
52.3372,0.892965
52.4242,0.892896
52.5113,0.892828
52.5984,0.892759
52.6855,0.89269
52.7726,0.892621
52.8597,0.892552
52.9467,0.892482
53.0338,0.892413
53.1209,0.892342
53.208,0.892271
53.2951,0.892199
53.3822,0.892125
53.4692,0.892052
53.5563,0.891979
53.6434,0.891906
53.7305,0.891832
53.8176,0.891756
53.9047,0.89168
53.9917,0.891603
54.0788,0.891524
54.1659,0.891445
54.253,0.891365
54.3401,0.891286
54.4272,0.891207
54.5142,0.891129
54.6013,0.891051
54.6884,0.890972
54.7755,0.890892
54.8626,0.89081
54.9497,0.890728
55.0368,0.890645
55.1238,0.890561
55.2109,0.890476
55.298,0.890392
55.3851,0.890307
55.4722,0.89022
55.5593,0.890131
55.6463,0.890041
55.7334,0.889951
55.8205,0.889858
55.9076,0.889764
55.9947,0.88967
56.0818,0.889575
56.1688,0.88948
56.2559,0.889387
56.343,0.889293
56.4301,0.8892
56.5172,0.889107
56.6043,0.889019
56.6913,0.888929
56.7784,0.88884
56.8655,0.888749
56.9526,0.88866
57.0397,0.888572
57.1268,0.888484
57.2138,0.888399
57.3009,0.888313
57.388,0.888228
57.4751,0.888143
57.5622,0.888061
57.6493,0.887975
57.7363,0.887893
57.8234,0.88781
57.9105,0.887727
57.9976,0.887645
58.0847,0.887564
58.1718,0.887482
58.2588,0.8874
58.3459,0.887319
58.433,0.887236
58.5201,0.887154
58.6072,0.887072
58.6943,0.886988
58.7813,0.886905
58.8684,0.886821
58.9555,0.886735
59.0426,0.886649
59.1297,0.886565
59.2168,0.886482
59.3038,0.886399
59.3909,0.886318
59.478,0.886239
59.5651,0.886159
59.6522,0.886079
59.7393,0.886
59.8263,0.88592
59.9134,0.885839
60.0005,0.885757
60.0876,0.885675
60.1747,0.885594
60.2618,0.885512
60.3488,0.88543
60.4359,0.885348
60.523,0.885267
60.6101,0.885186
60.6972,0.885105
60.7843,0.885024
60.8713,0.884943
60.9584,0.884861
61.0455,0.88478
61.1326,0.884697
61.2197,0.884615
61.3068,0.884534
61.3938,0.884454
61.4809,0.884373
61.568,0.884291
61.6551,0.884208
61.7422,0.884127
61.8293,0.884045
61.9163,0.883965
62.0034,0.883887
62.0905,0.883809
62.1776,0.88373
62.2647,0.883653
62.3518,0.883576
62.4388,0.883502
62.5259,0.883427
62.613,0.88335
62.7001,0.883273
62.7872,0.883197
62.8743,0.883121
62.9613,0.883045
63.0484,0.882969
63.1355,0.882894
63.2226,0.882818
63.3097,0.882741
63.3968,0.882663
63.4838,0.882585
63.5709,0.882506
63.658,0.882426
63.7451,0.882348
63.8322,0.88227
63.9193,0.882193
64.0063,0.882115
64.0934,0.882037
64.1805,0.881957
64.2676,0.881876
64.3547,0.881792
64.4418,0.88171
64.5288,0.881628
64.6159,0.881545
64.703,0.881462
64.7901,0.881379
64.8772,0.881296
64.9643,0.881214
65.0513,0.881132
65.1384,0.881051
65.2255,0.880969
65.3126,0.880887
65.3997,0.880806
65.4868,0.880725
65.5739,0.880644
65.6609,0.880562
65.748,0.880481
65.8351,0.8804
65.9222,0.880319
66.0093,0.880238
66.0964,0.880157
66.1834,0.880075
66.2705,0.879992
66.3576,0.879907
66.4447,0.879822
66.5318,0.879735
66.6189,0.879647
66.7059,0.879557
66.793,0.879464
66.8801,0.879372
66.9672,0.879275
67.0543,0.879175
67.1414,0.879075
67.2284,0.878974
67.3155,0.878873
67.4026,0.878769
67.4897,0.878664
67.5768,0.878558
67.6639,0.878449
67.7509,0.87834
67.838,0.878227
67.9251,0.878115
68.0122,0.878004
68.0993,0.877892
68.1864,0.877776
68.2734,0.87766
68.3605,0.877542
68.4476,0.877422
68.5347,0.8773
68.6218,0.87718
68.7089,0.877057
68.7959,0.876933
68.883,0.876807
68.9701,0.876682
69.0572,0.876557
69.1443,0.876431
69.2314,0.876304
69.3184,0.876177
69.4055,0.876049
69.4926,0.87592
69.5797,0.875791
69.6668,0.875661
69.7539,0.87553
69.8409,0.875399
69.928,0.875268
70.0151,0.875137
70.1022,0.875006
70.1893,0.874876
70.2764,0.874746
70.3634,0.874617
70.4505,0.874488
70.5376,0.874359
70.6247,0.874228
70.7118,0.874097
70.7989,0.873967
70.8859,0.873837
70.973,0.873707
71.0601,0.873576
71.1472,0.873446
71.2343,0.873316
71.3214,0.873186
71.4084,0.873056
71.4955,0.872923
71.5826,0.872791
71.6697,0.87266
71.7568,0.872529
71.8439,0.872398
71.9309,0.872268
72.018,0.872139
72.1051,0.872012
72.1922,0.871886
72.2793,0.871764
72.3664,0.871642
72.4534,0.871522
72.5405,0.871405
72.6276,0.87129
72.7147,0.871175
72.8018,0.871059
72.8889,0.870943
72.9759,0.870826
73.063,0.87071
73.1501,0.870597
73.2372,0.870484
73.3243,0.870372
73.4114,0.870259
73.4984,0.870145
73.5855,0.870032
73.6726,0.869919
73.7597,0.869808
73.8468,0.869697
73.9339,0.869585
74.0209,0.869475
74.108,0.869368
74.1951,0.869262
74.2822,0.869157
74.3693,0.869054
74.4564,0.868953
74.5434,0.868856
74.6305,0.868758
74.7176,0.86866
74.8047,0.868564
74.8918,0.868469
74.9789,0.868375
75.0659,0.868282
75.153,0.868187
75.2401,0.868092
75.3272,0.867998
75.4143,0.867904
75.5014,0.867809
75.5884,0.867714
75.6755,0.867619
75.7626,0.867524
75.8497,0.867427
75.9368,0.867331
76.0239,0.867236
76.1109,0.867139
76.198,0.867042
76.2851,0.866943
76.3722,0.866844
76.4593,0.866744
76.5464,0.866644
76.6335,0.866544
76.7205,0.866445
76.8076,0.866345
76.8947,0.866243
76.9818,0.866142
77.0689,0.866038
77.156,0.865934
77.243,0.865831
77.3301,0.865726
77.4172,0.86562
77.5043,0.865514
77.5914,0.865406
77.6785,0.865297
77.7655,0.865188
77.8526,0.865079
77.9397,0.864969
78.0268,0.864859
78.1139,0.864748
78.201,0.864637
78.288,0.864528
78.3751,0.864418
78.4622,0.864308
78.5493,0.864196
78.6364,0.864085
78.7235,0.863975
78.8105,0.863863
78.8976,0.863754
78.9847,0.863643
79.0718,0.863535
79.1589,0.863426
79.246,0.863317
79.333,0.863206
79.4201,0.863096
79.5072,0.862986
79.5943,0.862876
79.6814,0.862768
79.7685,0.862659
79.8555,0.86255
79.9426,0.862441
80.0297,0.862329
80.1168,0.862219
80.2039,0.862109
80.291,0.861998
80.378,0.861889
80.4651,0.86178
80.5522,0.861673
80.6393,0.861567
80.7264,0.861461
80.8135,0.861357
80.9005,0.861254
80.9876,0.861151
81.0747,0.861049
81.1618,0.860947
81.2489,0.860846
81.336,0.860744
81.423,0.860643
81.5101,0.860541
81.5972,0.860439
81.6843,0.860338
81.7714,0.860237
81.8585,0.860136
81.9455,0.860037
82.0326,0.859937
82.1197,0.859836
82.2068,0.859734
82.2939,0.859634
82.381,0.859536
82.468,0.859438
82.5551,0.859341
82.6422,0.859245
82.7293,0.859149
82.8164,0.859054
82.9035,0.858962
82.9905,0.85887
83.0776,0.858777
83.1647,0.858684
83.2518,0.858593
83.3389,0.858501
83.426,0.858407
83.513,0.858313
83.6001,0.858217
83.6872,0.858122
83.7743,0.858025
83.8614,0.857925
83.9485,0.857824
84.0355,0.857722
84.1226,0.857618
84.2097,0.857514
84.2968,0.857409
84.3839,0.857304
84.471,0.857197
84.558,0.857088
84.6451,0.856978
84.7322,0.856866
84.8193,0.856753
84.9064,0.85664
84.9935,0.856525
85.0805,0.85641
85.1676,0.856296
85.2547,0.856182
85.3418,0.856067
85.4289,0.855951
85.516,0.855834
85.603,0.855717
85.6901,0.855599
85.7772,0.855478
85.8643,0.855359
85.9514,0.85524
86.0385,0.85512
86.1255,0.855001
86.2126,0.854881
86.2997,0.85476
86.3868,0.85464
86.4739,0.854519
86.561,0.854398
86.648,0.854276
86.7351,0.854155
86.8222,0.854034
86.9093,0.853912
86.9964,0.853792
87.0835,0.853669
87.1705,0.853547
87.2576,0.853423
87.3447,0.853297
87.4318,0.853168
87.5189,0.853042
87.606,0.852913
87.6931,0.852785
87.7801,0.852655
87.8672,0.852524
87.9543,0.852392
88.0414,0.852259
88.1285,0.852126
88.2156,0.851992
88.3026,0.851856
88.3897,0.851718
88.4768,0.851578
88.5639,0.851439
88.651,0.851298
88.7381,0.851156
88.8251,0.851013
88.9122,0.850869
88.9993,0.850725
89.0864,0.85058
89.1735,0.850435
89.2606,0.850291
89.3476,0.850146
89.4347,0.85
89.5218,0.849854
89.6089,0.849707
89.696,0.849561
89.7831,0.849413
89.8701,0.849265
89.9572,0.849118
90.0443,0.848969
90.1314,0.848821
90.2185,0.848671
90.3056,0.848522
90.3926,0.848372
90.4797,0.848223
90.5668,0.848074
90.6539,0.847924
90.741,0.847773
90.8281,0.847622
90.9151,0.847471
91.0022,0.847321
91.0893,0.847173
91.1764,0.847024
91.2635,0.846874
91.3506,0.846725
91.4376,0.846576
91.5247,0.846428
91.6118,0.846279
91.6989,0.84613
91.786,0.84598
91.8731,0.845832
91.9601,0.845684
92.0472,0.845535
92.1343,0.845386
92.2214,0.845235
92.3085,0.845084
92.3956,0.844933
92.4826,0.84478
92.5697,0.844629
92.6568,0.844477
92.7439,0.844326
92.831,0.844177
92.9181,0.844027
93.0051,0.843874
93.0922,0.843723
93.1793,0.843572
93.2664,0.843421
93.3535,0.843268
93.4406,0.843116
93.5276,0.842965
93.6147,0.842813
93.7018,0.842663
93.7889,0.842512
93.876,0.84236
93.9631,0.842207
94.0501,0.842054
94.1372,0.841901
94.2243,0.841747
94.3114,0.841592
94.3985,0.841437
94.4856,0.841282
94.5726,0.841126
94.6597,0.840968
94.7468,0.840811
94.8339,0.840653
94.921,0.840494
95.0081,0.840333
95.0951,0.840171
95.1822,0.840009
95.2693,0.839846
95.3564,0.839681
95.4435,0.839516
95.5306,0.839349
95.6176,0.839181
95.7047,0.839013
95.7918,0.838845
95.8789,0.838675
95.966,0.838504
96.0531,0.838331
96.1401,0.838156
96.2272,0.837981
96.3143,0.837806
96.4014,0.837632
96.4885,0.837455
96.5756,0.837278
96.6626,0.8371
96.7497,0.83692
96.8368,0.83674
96.9239,0.836557
97.011,0.836372
97.0981,0.836184
97.1851,0.835996
97.2722,0.835808
97.3593,0.835621
97.4464,0.835432
97.5335,0.835243
97.6206,0.835053
97.7076,0.834864
97.7947,0.834674
97.8818,0.834482
97.9689,0.834291
98.056,0.834098
98.1431,0.833906
98.2301,0.833713
98.3172,0.83352
98.4043,0.833328
98.4914,0.833135
98.5785,0.832941
98.6656,0.832746
98.7527,0.832553
98.8397,0.832359
98.9268,0.832164
99.0139,0.831971
99.101,0.83178
99.1881,0.831591
99.2752,0.831404
99.3622,0.831216
99.4493,0.831028
99.5364,0.83084
99.6235,0.830652
99.7106,0.830464
99.7977,0.830276
99.8847,0.830088
99.9718,0.829898
100.059,0.829706
100.146,0.829513
100.233,0.82932
100.32,0.829124
100.407,0.828924
100.494,0.828722
100.581,0.828518
100.668,0.828313
100.756,0.828105
100.843,0.827895
100.93,0.827681
101.017,0.827463
101.104,0.827246
101.191,0.827026
101.278,0.826802
101.365,0.826578
101.452,0.826353
101.539,0.826126
101.626,0.825897
101.713,0.825664
101.801,0.825428
101.888,0.82519
101.975,0.824951
102.062,0.824712
102.149,0.824472
102.236,0.82423
102.323,0.823986
102.41,0.82374
102.497,0.823491
102.584,0.82324
102.671,0.822986
102.758,0.822729
102.846,0.822468
102.933,0.822206
103.02,0.821941
103.107,0.821674
103.194,0.821406
103.281,0.821134
103.368,0.820862
103.455,0.820587
103.542,0.820311
103.629,0.820034
103.716,0.819753
103.803,0.819472
103.891,0.819188
103.978,0.818901
104.065,0.818611
104.152,0.818318
104.239,0.818019
104.326,0.817716
104.413,0.817412
104.5,0.817106
104.587,0.816801
104.674,0.816495
104.761,0.816186
104.848,0.815875
104.936,0.815564
105.023,0.815253
105.11,0.814944
105.197,0.814634
105.284,0.814323
105.371,0.814011
105.458,0.813703
105.545,0.813394
105.632,0.813086
105.719,0.812777
105.806,0.81247
105.893,0.812165
105.981,0.811863
106.068,0.811564
106.155,0.811267
106.242,0.810969
106.329,0.810672
106.416,0.810377
106.503,0.810084
106.59,0.809792
106.677,0.809502
106.764,0.809214
106.851,0.808928
106.938,0.808647
107.026,0.808369
107.113,0.808094
107.2,0.80782
107.287,0.807549
107.374,0.807281
107.461,0.807015
107.548,0.806752
107.635,0.806493
107.722,0.806237
107.809,0.805983
107.896,0.805731
107.983,0.805482
108.071,0.805233
108.158,0.804983
108.245,0.804733
108.332,0.804483
108.419,0.804235
108.506,0.803988
108.593,0.80374
108.68,0.803492
108.767,0.803243
108.854,0.802993
108.941,0.802743
109.028,0.802494
109.116,0.802243
109.203,0.801993
109.29,0.801741
109.377,0.801492
109.464,0.801241
109.551,0.80099
109.638,0.800737
109.725,0.800485
109.812,0.800234
109.899,0.79998
109.986,0.799726
110.074,0.799471
110.161,0.799214
110.248,0.798959
110.335,0.798704
110.422,0.798447
110.509,0.798189
110.596,0.797929
110.683,0.797669
110.77,0.797408
110.857,0.797148
110.944,0.796885
111.031,0.79662
111.119,0.79635
111.206,0.796076
111.293,0.7958
111.38,0.795521
111.467,0.795241
111.554,0.794957
111.641,0.79467
111.728,0.79438
111.815,0.794086
111.902,0.793791
111.989,0.793495
112.076,0.793195
112.164,0.792889
112.251,0.79258
112.338,0.792265
112.425,0.791946
112.512,0.791627
112.599,0.791304
112.686,0.790977
112.773,0.790646
112.86,0.79031
112.947,0.789973
113.034,0.789632
113.121,0.78929
113.209,0.788946
113.296,0.788603
113.383,0.788258
113.47,0.787911
113.557,0.787561
113.644,0.78721
113.731,0.786856
113.818,0.786501
113.905,0.786143
113.992,0.785784
114.079,0.785419
114.166,0.785051
114.254,0.784681
114.341,0.784311
114.428,0.783937
114.515,0.78356
114.602,0.78318
114.689,0.782798
114.776,0.782412
114.863,0.782025
114.95,0.781634
115.037,0.781241
115.124,0.780844
115.211,0.780446
115.299,0.780046
115.386,0.779646
115.473,0.779243
115.56,0.778837
115.647,0.778427
115.734,0.778018
115.821,0.777607
115.908,0.777195
115.995,0.77678
116.082,0.776363
116.169,0.775943
116.256,0.775522
116.344,0.775097
116.431,0.77467
116.518,0.774239
116.605,0.773806
116.692,0.773369
116.779,0.772929
116.866,0.772487
116.953,0.772041
117.04,0.771591
117.127,0.77114
117.214,0.770686
117.301,0.77023
117.389,0.769769
117.476,0.769306
117.563,0.768838
117.65,0.768367
117.737,0.767892
117.824,0.767415
117.911,0.766935
117.998,0.766451
118.085,0.765966
118.172,0.765477
118.259,0.764984
118.346,0.764488
118.434,0.76399
118.521,0.763489
118.608,0.762984
118.695,0.762476
118.782,0.761964
118.869,0.761448
118.956,0.76093
119.043,0.760435
119.13,0.759955
119.217,0.759458
119.304,0.758945
119.391,0.758421
119.479,0.757888
119.566,0.757347
119.653,0.756796
119.74,0.756233
119.827,0.755656
119.914,0.755076
120.001,0.754494
120.088,0.753897
120.175,0.753287
120.262,0.752667
120.349,0.752041
120.436,0.751441
120.524,0.750844
120.611,0.750245
120.698,0.749642
120.785,0.749037
120.872,0.748429
120.959,0.747814
121.046,0.747195
121.133,0.746572
121.22,0.745944
121.307,0.745311
121.394,0.744675
121.481,0.744037
121.569,0.743392
121.656,0.742741
121.743,0.742084
121.83,0.741423
121.917,0.740757
122.004,0.740085
122.091,0.739406
122.178,0.73872
122.201,0.738536