File: smoothed_normalized_data/40.0mA1msec-0.2mA9msec.csv
Capacity_mAh,Voltage_V
0.0,1.0
0.0870835,0.996242
0.174167,0.992606
0.26125,0.989091
0.348334,0.985696
0.435417,0.982417
0.522501,0.979254
0.609584,0.976203
0.696668,0.973264
0.783751,0.970434
0.870835,0.967712
0.957918,0.965095
1.045,0.962581
1.13209,0.960169
1.21917,0.957856
1.30625,0.955642
1.39334,0.953523
1.48042,0.951498
1.5675,0.949564
1.65459,0.947721
1.74167,0.945966
1.82875,0.944297
1.91584,0.942711
2.00292,0.941209
2.09,0.939786
2.17709,0.938442
2.26417,0.937174
2.35125,0.935981
2.43834,0.93486
2.52542,0.93381
2.6125,0.932828
2.69959,0.931914
2.78667,0.931064
2.87375,0.930277
2.96084,0.929551
3.04792,0.928884
3.135,0.928274
3.22209,0.927719
3.30917,0.927217
3.39626,0.926767
3.48334,0.926366
3.57042,0.926013
3.65751,0.925705
3.74459,0.92544
3.83167,0.925217
3.91876,0.925034
4.00584,0.924888
4.09292,0.924779
4.18001,0.924703
4.26709,0.924659
4.35417,0.924645
4.44126,0.924659
4.52834,0.924725
4.61542,0.925068
4.70251,0.925298
4.78959,0.925463
4.87667,0.925584
4.96376,0.925672
5.05084,0.925736
5.13792,0.92578
5.22501,0.925809
5.31209,0.925826
5.39917,0.925832
5.48626,0.925829
5.57334,0.925819
5.66043,0.925802
5.74751,0.925779
5.83459,0.925747
5.92168,0.92571
6.00876,0.925667
6.09584,0.925617
6.18293,0.925561
6.27001,0.925498
6.35709,0.925432
6.44418,0.925361
6.53126,0.925287
6.61834,0.92521
6.70543,0.925131
6.79251,0.925048
6.87959,0.924966
6.96668,0.924886
7.05376,0.924806
7.14084,0.924726
7.22793,0.924646
7.31501,0.924568
7.40209,0.924488
7.48918,0.924409
7.57626,0.92433
7.66335,0.924252
7.75043,0.924175
7.83751,0.924097
7.9246,0.92402
8.01168,0.923945
8.09876,0.923872
8.18585,0.923799
8.27293,0.923729
8.36001,0.923658
8.4471,0.923587
8.53418,0.923518
8.62126,0.923447
8.70835,0.923377
8.79543,0.923307
8.88251,0.923242
8.9696,0.923176
9.05668,0.923112
9.14376,0.923049
9.23085,0.922988
9.31793,0.922929
9.40501,0.92287
9.4921,0.922812
9.57918,0.922756
9.66626,0.922699
9.75335,0.922645
9.84043,0.922591
9.92752,0.922538
10.0146,0.922486
10.1017,0.922436
10.1888,0.922386
10.2758,0.92234
10.3629,0.922296
10.45,0.922254
10.5371,0.922213
10.6242,0.922174
10.7113,0.922135
10.7983,0.922098
10.8854,0.922061
10.9725,0.922026
11.0596,0.921993
11.1467,0.92196
11.2338,0.921926
11.3209,0.921892
11.4079,0.921861
11.495,0.921831
11.5821,0.921805
11.6692,0.921779
11.7563,0.921753
11.8434,0.921729
11.9304,0.921706
12.0175,0.921684
12.1046,0.921663
12.1917,0.921641
12.2788,0.921621
12.3659,0.921602
12.4529,0.921584
12.54,0.921565
12.6271,0.921544
12.7142,0.921523
12.8013,0.921503
12.8884,0.921479
12.9754,0.921457
13.0625,0.921435
13.1496,0.921412
13.2367,0.921387
13.3238,0.921361
13.4109,0.921334
13.4979,0.921307
13.585,0.92128
13.6721,0.921255
13.7592,0.921227
13.8463,0.921201
13.9334,0.921172
14.0204,0.921144
14.1075,0.921115
14.1946,0.921085
14.2817,0.921054
14.3688,0.921023
14.4559,0.920991
14.5429,0.92096
14.63,0.92093
14.7171,0.920898
14.8042,0.920865
14.8913,0.920833
14.9784,0.920801
15.0654,0.920768
15.1525,0.920735
15.2396,0.920701
15.3267,0.920667
15.4138,0.920632
15.5009,0.920595
15.5879,0.920559
15.675,0.920521
15.7621,0.920481
15.8492,0.920442
15.9363,0.920402
16.0234,0.920359
16.1104,0.920314
16.1975,0.920267
16.2846,0.920219
16.3717,0.92017
16.4588,0.920121
16.5459,0.92007
16.6329,0.920024
16.72,0.919977
16.8071,0.919931
16.8942,0.919883
16.9813,0.919836
17.0684,0.91979
17.1554,0.919744
17.2425,0.919696
17.3296,0.919648
17.4167,0.9196
17.5038,0.919552
17.5909,0.919506
17.6779,0.919461
17.765,0.919418
17.8521,0.919375
17.9392,0.919334
18.0263,0.919295
18.1134,0.919255
18.2004,0.919215
18.2875,0.919176
18.3746,0.91914
18.4617,0.919102
18.5488,0.919067
18.6359,0.919032
18.7229,0.919
18.81,0.918967
18.8971,0.918938
18.9842,0.918907
19.0713,0.918881
19.1584,0.918855
19.2454,0.918829
19.3325,0.918803
19.4196,0.918777
19.5067,0.918749
19.5938,0.918723
19.6809,0.918696
19.7679,0.918672
19.855,0.918648
19.9421,0.918622
20.0292,0.918598
20.1163,0.918572
20.2034,0.918546
20.2904,0.918525
20.3775,0.918503
20.4646,0.918482
20.5517,0.918457
20.6388,0.918432
20.7259,0.918408
20.8129,0.918385
20.9,0.918362
20.9871,0.918338
21.0742,0.918311
21.1613,0.918284
21.2484,0.918258
21.3354,0.91823
21.4225,0.9182
21.5096,0.918169
21.5967,0.91814
21.6838,0.918108
21.7709,0.918077
21.858,0.918044
21.945,0.918011
22.0321,0.917977
22.1192,0.917945
22.2063,0.917911
22.2934,0.917878
22.3805,0.917844
22.4675,0.917808
22.5546,0.917771
22.6417,0.917734
22.7288,0.917695
22.8159,0.917656
22.903,0.917617
22.99,0.917578
23.0771,0.917537
23.1642,0.917494
23.2513,0.917452
23.3384,0.91741
23.4255,0.917369
23.5125,0.917326
23.5996,0.91728
23.6867,0.917232
23.7738,0.917185
23.8609,0.917137
23.948,0.917089
24.035,0.91704
24.1221,0.916989
24.2092,0.916938
24.2963,0.916887
24.3834,0.916835
24.4705,0.916781
24.5575,0.916729
24.6446,0.916675
24.7317,0.916622
24.8188,0.916568
24.9059,0.916511
24.993,0.916455
25.08,0.916398
25.1671,0.916342
25.2542,0.916288
25.3413,0.916234
25.4284,0.916182
25.5155,0.91613
25.6025,0.916077
25.6896,0.916025
25.7767,0.915972
25.8638,0.915918
25.9509,0.915865
26.038,0.91581
26.125,0.915756
26.2121,0.915702
26.2992,0.915649
26.3863,0.9156
26.4734,0.915552
26.5605,0.915503
26.6475,0.915455
26.7346,0.915408
26.8217,0.915362
26.9088,0.915317
26.9959,0.915271
27.083,0.915227
27.17,0.915185
27.2571,0.915144
27.3442,0.915101
27.4313,0.915061
27.5184,0.915022
27.6055,0.914983
27.6925,0.914944
27.7796,0.914906
27.8667,0.914866
27.9538,0.914827
28.0409,0.914786
28.128,0.914744
28.215,0.914705
28.3021,0.914666
28.3892,0.914625
28.4763,0.914586
28.5634,0.914548
28.6505,0.914509
28.7375,0.91447
28.8246,0.91443
28.9117,0.914391
28.9988,0.91435
29.0859,0.914311
29.173,0.91427
29.26,0.914228
29.3471,0.914186
29.4342,0.914144
29.5213,0.914101
29.6084,0.914058
29.6955,0.914017
29.7825,0.913973
29.8696,0.913928
29.9567,0.913882
30.0438,0.913836
30.1309,0.913792
30.218,0.913745
30.305,0.913699
30.3921,0.913653
30.4792,0.913605
30.5663,0.913558
30.6534,0.91351
30.7405,0.913463
30.8275,0.913416
30.9146,0.91337
31.0017,0.913322
31.0888,0.913271
31.1759,0.913222
31.263,0.913174
31.35,0.913124
31.4371,0.913078
31.5242,0.913032
31.6113,0.912984
31.6984,0.912937
31.7855,0.912892
31.8725,0.912845
31.9596,0.912797
32.0467,0.912749
32.1338,0.912701
32.2209,0.912654
32.308,0.912607
32.395,0.912558
32.4821,0.912509
32.5692,0.91246
32.6563,0.912412
32.7434,0.912366
32.8305,0.912319
32.9176,0.91227
33.0046,0.912222
33.0917,0.912171
33.1788,0.91212
33.2659,0.912068
33.353,0.912013
33.4401,0.911959
33.5271,0.911906
33.6142,0.911853
33.7013,0.911798
33.7884,0.911745
33.8755,0.911692
33.9626,0.911641
34.0496,0.911589
34.1367,0.911537
34.2238,0.911486
34.3109,0.911436
34.398,0.911387
34.4851,0.911337
34.5721,0.911286
34.6592,0.911236
34.7463,0.911186
34.8334,0.91114
34.9205,0.911093
35.0076,0.911045
35.0946,0.910997
35.1817,0.910951
35.2688,0.910903
35.3559,0.910855
35.443,0.910808
35.5301,0.910761
35.6171,0.910718
35.7042,0.910676
35.7913,0.910631
35.8784,0.910588
35.9655,0.910543
36.0526,0.910499
36.1396,0.910456
36.2267,0.910412
36.3138,0.910368
36.4009,0.910326
36.488,0.910283
36.5751,0.910239
36.6621,0.910196
36.7492,0.910151
36.8363,0.910107
36.9234,0.910062
37.0105,0.910017
37.0976,0.909974
37.1846,0.90993
37.2717,0.909885
37.3588,0.90984
37.4459,0.909794
37.533,0.909747
37.6201,0.9097
37.7071,0.909652
37.7942,0.909605
37.8813,0.909558
37.9684,0.909511
38.0555,0.909461
38.1426,0.909414
38.2296,0.909368
38.3167,0.90932
38.4038,0.909271
38.4909,0.909222
38.578,0.909175
38.6651,0.909128
38.7521,0.90908
38.8392,0.909033
38.9263,0.908987
39.0134,0.908944
39.1005,0.908902
39.1876,0.908857
39.2746,0.908813
39.3617,0.908768
39.4488,0.908724
39.5359,0.90868
39.623,0.908635
39.7101,0.908591
39.7971,0.908543
39.8842,0.908493
39.9713,0.908445
40.0584,0.908399
40.1455,0.908353
40.2326,0.908306
40.3196,0.90826
40.4067,0.908214
40.4938,0.908165
40.5809,0.908119
40.668,0.908072
40.7551,0.908023
40.8421,0.907974
40.9292,0.907925
41.0163,0.907876
41.1034,0.907827
41.1905,0.907778
41.2776,0.90773
41.3646,0.907681
41.4517,0.907632
41.5388,0.907584
41.6259,0.907533
41.713,0.907481
41.8001,0.907428
41.8871,0.907374
41.9742,0.907318
42.0613,0.907262
42.1484,0.907207
42.2355,0.907154
42.3226,0.907102
42.4096,0.90705
42.4967,0.906998
42.5838,0.906944
42.6709,0.906892
42.758,0.906839
42.8451,0.906787
42.9321,0.906735
43.0192,0.906683
43.1063,0.906633
43.1934,0.906582
43.2805,0.90653
43.3676,0.906477
43.4546,0.906425
43.5417,0.906372
43.6288,0.90632
43.7159,0.906267
43.803,0.906215
43.8901,0.906163
43.9772,0.906112
44.0642,0.906061
44.1513,0.906011
44.2384,0.905963
44.3255,0.905916
44.4126,0.905869
44.4997,0.905821
44.5867,0.905772
44.6738,0.905723
44.7609,0.905674
44.848,0.905628
44.9351,0.90558
45.0222,0.905534
45.1092,0.905489
45.1963,0.905444
45.2834,0.905399
45.3705,0.905353
45.4576,0.905306
45.5447,0.90526
45.6317,0.905212
45.7188,0.905165
45.8059,0.905118
45.893,0.905071
45.9801,0.905026
46.0672,0.904977
46.1542,0.904929
46.2413,0.904879
46.3284,0.904829
46.4155,0.904777
46.5026,0.904727
46.5897,0.904675
46.6767,0.904623
46.7638,0.904572
46.8509,0.90452
46.938,0.904469
47.0251,0.904417
47.1122,0.904366
47.1992,0.904314
47.2863,0.904265
47.3734,0.904216
47.4605,0.904167
47.5476,0.904116
47.6347,0.904066
47.7217,0.904015
47.8088,0.903964
47.8959,0.903912
47.983,0.903859
48.0701,0.903803
48.1572,0.903748
48.2442,0.903691
48.3313,0.903634
48.4184,0.903577
48.5055,0.903522
48.5926,0.903465
48.6797,0.903408
48.7667,0.90335
48.8538,0.903293
48.9409,0.903238
49.028,0.903182
49.1151,0.903126
49.2022,0.903071
49.2892,0.903015
49.3763,0.90296
49.4634,0.902905
49.5505,0.902851
49.6376,0.902796
49.7247,0.902741
49.8117,0.902685
49.8988,0.902628
49.9859,0.902573
50.073,0.902515
50.1601,0.902457
50.2472,0.902398
50.3342,0.902337
50.4213,0.902276
50.5084,0.902214
50.5955,0.902152
50.6826,0.902091
50.7697,0.902032
50.8567,0.901969
50.9438,0.901908
51.0309,0.901848
51.118,0.901789
51.2051,0.90173
51.2922,0.901672
51.3792,0.901614
51.4663,0.901555
51.5534,0.901497
51.6405,0.90144
51.7276,0.901382
51.8147,0.901324
51.9017,0.901267
51.9888,0.901209
52.0759,0.90115
52.163,0.901092
52.2501,0.901033
52.3372,0.900974
52.4242,0.900915
52.5113,0.900856
52.5984,0.900797
52.6855,0.900741
52.7726,0.900683
52.8597,0.900623
52.9467,0.900564
53.0338,0.900505
53.1209,0.900447
53.208,0.900385
53.2951,0.900324
53.3822,0.900262
53.4692,0.900201
53.5563,0.900142
53.6434,0.900081
53.7305,0.900021
53.8176,0.899958
53.9047,0.899896
53.9917,0.899832
54.0788,0.899767
54.1659,0.899701
54.253,0.899635
54.3401,0.89957
54.4272,0.899504
54.5142,0.89944
54.6013,0.899377
54.6884,0.89931
54.7755,0.899243
54.8626,0.899174
54.9497,0.899105
55.0368,0.899037
55.1238,0.89897
55.2109,0.898904
55.298,0.898837
55.3851,0.89877
55.4722,0.898703
55.5593,0.898636
55.6463,0.89857
55.7334,0.898503
55.8205,0.898434
55.9076,0.898365
55.9947,0.898301
56.0818,0.898236
56.1688,0.898171
56.2559,0.898108
56.343,0.898045
56.4301,0.897982
56.5172,0.897919
56.6043,0.897853
56.6913,0.897788
56.7784,0.897722
56.8655,0.897658
56.9526,0.89759
57.0397,0.897522
57.1268,0.897453
57.2138,0.897382
57.3009,0.897314
57.388,0.897246
57.4751,0.897175
57.5622,0.897103
57.6493,0.897031
57.7363,0.896959
57.8234,0.896889
57.9105,0.896818
57.9976,0.896748
58.0847,0.896676
58.1718,0.896606
58.2588,0.896535
58.3459,0.896463
58.433,0.896391
58.5201,0.896319
58.6072,0.896249
58.6943,0.896177
58.7813,0.896103
58.8684,0.896031
58.9555,0.895958
59.0426,0.895884
59.1297,0.895812
59.2168,0.895739
59.3038,0.895666
59.3909,0.895595
59.478,0.895525
59.5651,0.895453
59.6522,0.895382
59.7393,0.895311
59.8263,0.89524
59.9134,0.895172
60.0005,0.895101
60.0876,0.895031
60.1747,0.894964
60.2618,0.894895
60.3488,0.894825
60.4359,0.894755
60.523,0.894685
60.6101,0.894612
60.6972,0.894542
60.7843,0.894471
60.8713,0.894399
60.9584,0.894327
61.0455,0.894255
61.1326,0.894182
61.2197,0.894108
61.3068,0.894034
61.3938,0.893961
61.4809,0.893888
61.568,0.893819
61.6551,0.893746
61.7422,0.893673
61.8293,0.893599
61.9163,0.893526
62.0034,0.893452
62.0905,0.893376
62.1776,0.893301
62.2647,0.893227
62.3518,0.893152
62.4388,0.89308
62.5259,0.893006
62.613,0.892932
62.7001,0.892858
62.7872,0.892783
62.8743,0.892708
62.9613,0.892634
63.0484,0.892559
63.1355,0.892487
63.2226,0.892415
63.3097,0.892343
63.3968,0.892269
63.4838,0.892195
63.5709,0.892118
63.658,0.892043
63.7451,0.891971
63.8322,0.8919
63.9193,0.891828
64.0063,0.891759
64.0934,0.891687
64.1805,0.891617
64.2676,0.891545
64.3547,0.891474
64.4418,0.891405
64.5288,0.891335
64.6159,0.891261
64.703,0.891191
64.7901,0.89112
64.8772,0.891051
64.9643,0.890982
65.0513,0.890912
65.1384,0.890843
65.2255,0.890773
65.3126,0.890701
65.3997,0.890628
65.4868,0.890555
65.5739,0.890481
65.6609,0.890405
65.748,0.890329
65.8351,0.890251
65.9222,0.890174
66.0093,0.890099
66.0964,0.890023
66.1834,0.889949
66.2705,0.889874
66.3576,0.889797
66.4447,0.889722
66.5318,0.889647
66.6189,0.889572
66.7059,0.889496
66.793,0.88942
66.8801,0.889346
66.9672,0.88927
67.0543,0.889194
67.1414,0.889117
67.2284,0.88904
67.3155,0.888962
67.4026,0.888887
67.4897,0.888809
67.5768,0.888731
67.6639,0.888652
67.7509,0.888575
67.838,0.888496
67.9251,0.888416
68.0122,0.888336
68.0993,0.888256
68.1864,0.888176
68.2734,0.888096
68.3605,0.888017
68.4476,0.887936
68.5347,0.887853
68.6218,0.887771
68.7089,0.887687
68.7959,0.887604
68.883,0.887522
68.9701,0.887439
69.0572,0.887357
69.1443,0.887272
69.2314,0.887185
69.3184,0.887098
69.4055,0.887012
69.4926,0.886927
69.5797,0.886841
69.6668,0.886755
69.7539,0.886667
69.8409,0.886579
69.928,0.886491
70.0151,0.886401
70.1022,0.886311
70.1893,0.886221
70.2764,0.886132
70.3634,0.886041
70.4505,0.88595
70.5376,0.885858
70.6247,0.885764
70.7118,0.88567
70.7989,0.885576
70.8859,0.885483
70.973,0.885391
71.0601,0.885301
71.1472,0.885209
71.2343,0.885117
71.3214,0.885025
71.4084,0.884932
71.4955,0.884839
71.5826,0.884747
71.6697,0.884656
71.7568,0.884563
71.8439,0.884472
71.9309,0.884381
72.018,0.884291
72.1051,0.8842
72.1922,0.884107
72.2793,0.884015
72.3664,0.883923
72.4534,0.883832
72.5405,0.883741
72.6276,0.883651
72.7147,0.883562
72.8018,0.883471
72.8889,0.883378
72.9759,0.883284
73.063,0.88319
73.1501,0.883094
73.2372,0.883
73.3243,0.882906
73.4114,0.882812
73.4984,0.88272
73.5855,0.882628
73.6726,0.882538
73.7597,0.882447
73.8468,0.882357
73.9339,0.882266
74.0209,0.882175
74.108,0.882081
74.1951,0.881988
74.2822,0.881893
74.3693,0.881797
74.4564,0.881701
74.5434,0.881604
74.6305,0.881508
74.7176,0.881413
74.8047,0.88132
74.8918,0.881225
74.9789,0.88113
75.0659,0.881034
75.153,0.880937
75.2401,0.880841
75.3272,0.880744
75.4143,0.880646
75.5014,0.880546
75.5884,0.880446
75.6755,0.880345
75.7626,0.880243
75.8497,0.880142
75.9368,0.880038
76.0239,0.879935
76.1109,0.879832
76.198,0.879728
76.2851,0.879624
76.3722,0.879518
76.4593,0.879412
76.5464,0.879305
76.6335,0.879196
76.7205,0.879086
76.8076,0.878974
76.8947,0.878863
76.9818,0.878753
77.0689,0.878641
77.156,0.878531
77.243,0.878421
77.3301,0.878308
77.4172,0.878193
77.5043,0.878082
77.5914,0.877972
77.6785,0.87786
77.7655,0.877747
77.8526,0.877632
77.9397,0.877518
78.0268,0.877404
78.1139,0.877289
78.201,0.877175
78.288,0.87706
78.3751,0.876943
78.4622,0.876824
78.5493,0.876705
78.6364,0.876587
78.7235,0.876469
78.8105,0.876351
78.8976,0.876235
78.9847,0.876119
79.0718,0.876003
79.1589,0.875888
79.246,0.875773
79.333,0.875657
79.4201,0.87554
79.5072,0.875422
79.5943,0.875303
79.6814,0.875186
79.7685,0.875071
79.8555,0.874958
79.9426,0.874843
80.0297,0.874726
80.1168,0.87461
80.2039,0.874494
80.291,0.874378
80.378,0.874262
80.4651,0.874144
80.5522,0.874028
80.6393,0.87391
80.7264,0.873792
80.8135,0.873674
80.9005,0.873559
80.9876,0.873443
81.0747,0.873329
81.1618,0.873213
81.2489,0.873097
81.336,0.872983
81.423,0.872868
81.5101,0.872752
81.5972,0.872636
81.6843,0.872518
81.7714,0.8724
81.8585,0.872285
81.9455,0.872171
82.0326,0.872056
82.1197,0.871944
82.2068,0.871831
82.2939,0.871719
82.381,0.871607
82.468,0.871492
82.5551,0.871376
82.6422,0.871259
82.7293,0.871141
82.8164,0.871022
82.9035,0.870903
82.9905,0.870785
83.0776,0.870667
83.1647,0.870549
83.2518,0.870433
83.3389,0.870313
83.426,0.870193
83.513,0.870075
83.6001,0.869957
83.6872,0.86984
83.7743,0.869721
83.8614,0.869602
83.9485,0.869482
84.0355,0.869361
84.1226,0.869241
84.2097,0.86912
84.2968,0.868998
84.3839,0.868877
84.471,0.868756
84.558,0.868636
84.6451,0.868517
84.7322,0.868398
84.8193,0.868278
84.9064,0.868156
84.9935,0.868036
85.0805,0.867915
85.1676,0.867793
85.2547,0.867672
85.3418,0.867552
85.4289,0.86743
85.516,0.867306
85.603,0.867184
85.6901,0.867062
85.7772,0.866943
85.8643,0.866822
85.9514,0.866701
86.0385,0.866581
86.1255,0.866461
86.2126,0.866341
86.2997,0.86622
86.3868,0.8661
86.4739,0.865981
86.561,0.865859
86.648,0.865737
86.7351,0.865616
86.8222,0.865497
86.9093,0.865375
86.9964,0.865254
87.0835,0.865132
87.1705,0.86501
87.2576,0.864883
87.3447,0.864758
87.4318,0.864635
87.5189,0.864513
87.606,0.864391
87.6931,0.864269
87.7801,0.864146
87.8672,0.864021
87.9543,0.863895
88.0414,0.863771
88.1285,0.863646
88.2156,0.863518
88.3026,0.863388
88.3897,0.863262
88.4768,0.863136
88.5639,0.863013
88.651,0.862887
88.7381,0.86276
88.8251,0.86263
88.9122,0.8625
88.9993,0.862372
89.0864,0.862242
89.1735,0.862112
89.2606,0.861983
89.3476,0.861851
89.4347,0.86172
89.5218,0.86159
89.6089,0.861457
89.696,0.861324
89.7831,0.861191
89.8701,0.861056
89.9572,0.860919
90.0443,0.86078
90.1314,0.860641
90.2185,0.860502
90.3056,0.860362
90.3926,0.860221
90.4797,0.86008
90.5668,0.859939
90.6539,0.859797
90.741,0.859654
90.8281,0.859512
90.9151,0.859368
91.0022,0.859223
91.0893,0.859077
91.1764,0.858929
91.2635,0.858779
91.3506,0.858628
91.4376,0.858475
91.5247,0.858322
91.6118,0.858171
91.6989,0.858019
91.786,0.857869
91.8731,0.85772
91.9601,0.857568
92.0472,0.857414
92.1343,0.85726
92.2214,0.857105
92.3085,0.856951
92.3956,0.856798
92.4826,0.856645
92.5697,0.85649
92.6568,0.856336
92.7439,0.856181
92.831,0.856026
92.9181,0.855873
93.0051,0.855719
93.0922,0.855565
93.1793,0.855411
93.2664,0.855258
93.3535,0.855103
93.4406,0.854946
93.5276,0.854789
93.6147,0.854632
93.7018,0.854474
93.7889,0.854317
93.876,0.85416
93.9631,0.854002
94.0501,0.853844
94.1372,0.853685
94.2243,0.853526
94.3114,0.853368
94.3985,0.853211
94.4856,0.853054
94.5726,0.852896
94.6597,0.85274
94.7468,0.852582
94.8339,0.852423
94.921,0.852266
95.0081,0.852108
95.0951,0.85195
95.1822,0.851791
95.2693,0.851633
95.3564,0.851474
95.4435,0.851315
95.5306,0.851157
95.6176,0.850998
95.7047,0.850839
95.7918,0.850678
95.8789,0.850517
95.966,0.850357
96.0531,0.850196
96.1401,0.850034
96.2272,0.849873
96.3143,0.849711
96.4014,0.849551
96.4885,0.84939
96.5756,0.849227
96.6626,0.849064
96.7497,0.848899
96.8368,0.848735
96.9239,0.84857
97.011,0.848405
97.0981,0.848238
97.1851,0.848073
97.2722,0.847909
97.3593,0.847744
97.4464,0.847577
97.5335,0.847406
97.6206,0.847236
97.7076,0.847067
97.7947,0.846897
97.8818,0.846727
97.9689,0.846555
98.056,0.846383
98.1431,0.846212
98.2301,0.846038
98.3172,0.845864
98.4043,0.845691
98.4914,0.845517
98.5785,0.845343
98.6656,0.845167
98.7527,0.844991
98.8397,0.844817
98.9268,0.844641
99.0139,0.844466
99.101,0.844289
99.1881,0.844113
99.2752,0.843937
99.3622,0.84376
99.4493,0.843579
99.5364,0.8434
99.6235,0.84322
99.7106,0.843039
99.7977,0.84286
99.8847,0.842677
99.9718,0.842495
100.059,0.842313
100.146,0.84213
100.233,0.841944
100.32,0.84176
100.407,0.841578
100.494,0.841394
100.581,0.84121
100.668,0.841026
100.756,0.840841
100.843,0.840656
100.93,0.84047
101.017,0.840285
101.104,0.8401
101.191,0.839914
101.278,0.839728
101.365,0.839542
101.452,0.839355
101.539,0.839168
101.626,0.83898
101.713,0.838792
101.801,0.838604
101.888,0.838414
101.975,0.838224
102.062,0.838034
102.149,0.837842
102.236,0.83765
102.323,0.837459
102.41,0.837268
102.497,0.837078
102.584,0.836887
102.671,0.836697
102.758,0.836505
102.846,0.836313
102.933,0.836122
103.02,0.835929
103.107,0.835738
103.194,0.835546
103.281,0.835353
103.368,0.835161
103.455,0.834968
103.542,0.834776
103.629,0.834584
103.716,0.834392
103.803,0.8342
103.891,0.834007
103.978,0.833813
104.065,0.833621
104.152,0.833428
104.239,0.833233
104.326,0.833037
104.413,0.832842
104.5,0.832645
104.587,0.832446
104.674,0.832245
104.761,0.832045
104.848,0.831844
104.936,0.831644
105.023,0.83144
105.11,0.831236
105.197,0.831034
105.284,0.830832
105.371,0.830629
105.458,0.830424
105.545,0.830218
105.632,0.830013
105.719,0.82981
105.806,0.829606
105.893,0.829398
105.981,0.829191
106.068,0.828983
106.155,0.828773
106.242,0.828562
106.329,0.828352
106.416,0.828143
106.503,0.827937
106.59,0.827729
106.677,0.82752
106.764,0.827313
106.851,0.827103
106.938,0.82689
107.026,0.826677
107.113,0.826463
107.2,0.82625
107.287,0.826035
107.374,0.825821
107.461,0.825607
107.548,0.825391
107.635,0.825175
107.722,0.824959
107.809,0.824744
107.896,0.824527
107.983,0.824311
108.071,0.824094
108.158,0.823876
108.245,0.823656
108.332,0.823435
108.419,0.823216
108.506,0.822996
108.593,0.822773
108.68,0.822551
108.767,0.822325
108.854,0.8221
108.941,0.821874
109.028,0.821645
109.116,0.821415
109.203,0.821187
109.29,0.820959
109.377,0.820728
109.464,0.820497
109.551,0.820266
109.638,0.820034
109.725,0.8198
109.812,0.819565
109.899,0.819329
109.986,0.819092
110.074,0.818855
110.161,0.818617
110.248,0.818379
110.335,0.818139
110.422,0.817899
110.509,0.817657
110.596,0.817414
110.683,0.81717
110.77,0.816926
110.857,0.816679
110.944,0.816434
111.031,0.816188
111.119,0.81594
111.206,0.815694
111.293,0.815447
111.38,0.8152
111.467,0.814951
111.554,0.8147
111.641,0.814447
111.728,0.814192
111.815,0.813937
111.902,0.81368
111.989,0.813421
112.076,0.813162
112.164,0.812906
112.251,0.812648
112.338,0.81239
112.425,0.812129
112.512,0.811869
112.599,0.811607
112.686,0.811343
112.773,0.811077
112.86,0.810813
112.947,0.810549
113.034,0.810284
113.121,0.810016
113.209,0.809747
113.296,0.809477
113.383,0.809207
113.47,0.808933
113.557,0.80866
113.644,0.808387
113.731,0.808112
113.818,0.807838
113.905,0.807561
113.992,0.807283
114.079,0.807002
114.166,0.806721
114.254,0.806438
114.341,0.806156
114.428,0.805872
114.515,0.805587
114.602,0.805302
114.689,0.805015
114.776,0.804726
114.863,0.804437
114.95,0.804147
115.037,0.803854
115.124,0.803562
115.211,0.803268
115.299,0.802972
115.386,0.802672
115.473,0.802371
115.56,0.802069
115.647,0.801764
115.734,0.801458
115.821,0.801149
115.908,0.800839
115.995,0.80053
116.082,0.800219
116.169,0.799907
116.256,0.799594
116.344,0.799279
116.431,0.798962
116.518,0.798643
116.605,0.798324
116.692,0.798003
116.779,0.79768
116.866,0.797353
116.953,0.797027
117.04,0.796699
117.127,0.796369
117.214,0.796037
117.301,0.795701
117.389,0.795364
117.476,0.795027
117.563,0.794693
117.65,0.794359
117.737,0.794022
117.824,0.793682
117.911,0.79334
117.998,0.792997
118.085,0.792654
118.172,0.792308
118.259,0.791961
118.346,0.791611
118.434,0.79126
118.521,0.790906
118.608,0.790551
118.695,0.790194
118.782,0.789838
118.869,0.789479
118.956,0.789121
119.043,0.78876
119.13,0.788397
119.217,0.788031
119.304,0.78766
119.391,0.787287
119.479,0.786914
119.566,0.786538
119.653,0.786162
119.74,0.785785
119.827,0.785405
119.914,0.785025
120.001,0.78464
120.088,0.784257
120.175,0.783869
120.262,0.78348
120.349,0.783088
120.436,0.782696
120.524,0.7823
120.611,0.781903
120.698,0.781503
120.785,0.781102
120.872,0.7807
120.959,0.780297
121.046,0.779894
121.133,0.779488
121.22,0.779078
121.307,0.778667
121.394,0.778254
121.481,0.777839
121.569,0.777421
121.656,0.777002
121.743,0.776581
121.83,0.776158
121.917,0.775732
122.004,0.775303
122.091,0.774874
122.178,0.774443
122.265,0.77401
122.352,0.773573
122.439,0.773134
122.526,0.772691
122.614,0.772245
122.701,0.771797
122.788,0.771345
122.875,0.770889
122.962,0.770429
123.049,0.769967
123.136,0.769503
123.223,0.769034
123.31,0.768562
123.397,0.768086
123.484,0.767608
123.571,0.767126
123.659,0.766639
123.746,0.766149
123.833,0.765654
123.92,0.765156
124.007,0.764654
124.094,0.764148
124.181,0.763639
124.268,0.763124
124.355,0.762609
124.442,0.762088
124.529,0.761562
124.616,0.76103
124.704,0.760494
124.791,0.759952
124.878,0.759406
124.965,0.758852
125.052,0.758289
125.139,0.757714
125.226,0.757128
125.313,0.756528
125.4,0.755919
125.487,0.755299
125.574,0.754668
125.661,0.754026
125.749,0.753374
125.836,0.752716
125.923,0.75205
126.01,0.751376
126.097,0.750696
126.184,0.750012
126.271,0.749325
126.358,0.748637
126.445,0.747944
126.532,0.747248
126.619,0.746547
126.706,0.745846
126.794,0.745146
126.881,0.744445
126.968,0.743749
127.055,0.743055
127.142,0.742363
127.229,0.741676
127.316,0.740992
127.403,0.740311
127.49,0.739637
127.577,0.738969
127.664,0.738307
127.67,0.738264