File: smoothed_normalized_data/40.0mA8msec-0.2mA12msec.csv
Capacity_mAh,Voltage_V
0.0,1.0
0.0223889,0.997953
0.0447778,0.99597
0.0671668,0.994067
0.0895557,0.992258
0.111945,0.990559
0.134334,0.989009
0.156722,0.987607
0.179111,0.986333
0.2015,0.985198
0.223889,0.98414
0.246278,0.983135
0.268667,0.982177
0.291056,0.981292
0.313445,0.980429
0.335834,0.979535
0.358223,0.978652
0.380612,0.977769
0.403001,0.976886
0.42539,0.975999
0.447778,0.975117
0.470167,0.97428
0.492556,0.973492
0.514945,0.972726
0.537334,0.971974
0.559723,0.971252
0.582112,0.970567
0.604501,0.969891
0.62689,0.969231
0.649279,0.968568
0.671668,0.967907
0.694057,0.967229
0.716446,0.966505
0.738834,0.9657
0.761223,0.964888
0.783612,0.964124
0.806001,0.963398
0.82839,0.962705
0.850779,0.962092
0.873168,0.961557
0.895557,0.961131
0.917946,0.960801
0.940335,0.960563
0.962724,0.960369
0.985113,0.960234
1.0075,0.960147
1.02989,0.96008
1.05228,0.959956
1.07467,0.959757
1.09706,0.959473
1.11945,0.959159
1.14184,0.958816
1.16422,0.958438
1.18661,0.958012
1.209,0.957564
1.23139,0.957111
1.25378,0.956672
1.27617,0.956186
1.29856,0.955672
1.32095,0.955128
1.34334,0.954637
1.36572,0.954242
1.38811,0.953945
1.4105,0.953788
1.43289,0.953765
1.45528,0.953836
1.47767,0.953951
1.50006,0.954071
1.52245,0.954123
1.54484,0.954081
1.56722,0.95396
1.58961,0.953759
1.612,0.953473
1.63439,0.953129
1.65678,0.95271
1.67917,0.952244
1.70156,0.95181
1.72395,0.951434
1.74634,0.951086
1.76872,0.950804
1.79111,0.950566
1.8135,0.950343
1.83589,0.95013
1.85828,0.949961
1.88067,0.949799
1.90306,0.949675
1.92545,0.949668
1.94784,0.949694
1.97023,0.949743
1.99261,0.949833
2.015,0.949879
2.03739,0.949833
2.05978,0.949684
2.08217,0.949447
2.10456,0.949094
2.12695,0.948687
2.14934,0.948254
2.17173,0.947771
2.19411,0.947247
2.2165,0.946716
2.23889,0.94619
2.26128,0.945675
2.28367,0.945156
2.30606,0.944679
2.32845,0.944224
2.35084,0.943839
2.37323,0.943479
2.39561,0.943116
2.418,0.942667
2.44039,0.942189
2.46278,0.941713
2.48517,0.941253
2.50756,0.940889
2.52995,0.940711
2.55234,0.940613
2.57473,0.940609
2.59712,0.940612
2.6195,0.940527
2.64189,0.940318
2.66428,0.939991
2.68667,0.939576
2.70906,0.939136
2.73145,0.938744
2.75384,0.938416
2.77623,0.938126
2.79862,0.937893
2.821,0.937684
2.84339,0.93747
2.86578,0.937268
2.88817,0.93702
2.91056,0.936682
2.93295,0.936235
2.95534,0.935674
2.97773,0.935069
3.00012,0.934491
3.0225,0.933987
3.04489,0.933589
3.06728,0.933315
3.08967,0.933192
3.11206,0.933108
3.13445,0.933006
3.15684,0.932877
3.17923,0.932778
3.20162,0.932762
3.224,0.932781
3.24639,0.93286
3.26878,0.932979
3.29117,0.933127
3.31356,0.933288
3.33595,0.93337
3.35834,0.933329
3.38073,0.933129
3.40312,0.93282
3.42551,0.932448
3.44789,0.932058
3.47028,0.931697
3.49267,0.931368
3.51506,0.931102
3.53745,0.930906
3.55984,0.930754
3.58223,0.930575
3.60462,0.930374
3.62701,0.93015
3.64939,0.929954
3.67178,0.929836
3.69417,0.929777
3.71656,0.929746
3.73895,0.929711
3.76134,0.929657
3.78373,0.92956
3.80612,0.92936
3.82851,0.929042
3.85089,0.928665
3.87328,0.928305
3.89567,0.928021
3.91806,0.927844
3.94045,0.927718
3.96284,0.927625
3.98523,0.927581
4.00762,0.927562
4.03001,0.927469
4.0524,0.927293
4.07478,0.927146
4.09717,0.927063
4.11956,0.927104
4.14195,0.927236
4.16434,0.927392
4.18673,0.927582
4.20912,0.927786
4.23151,0.927956
4.2539,0.928038
4.27628,0.928065
4.29867,0.92805
4.32106,0.927993
4.34345,0.927904
4.36584,0.927771
4.38823,0.927586
4.41062,0.927408
4.43301,0.927239
4.4554,0.927057
4.47778,0.926936
4.50017,0.926847
4.52256,0.926768
4.54495,0.926678
4.56734,0.926539
4.58973,0.926375
4.61212,0.926185
4.63451,0.925996
4.6569,0.925804
4.67928,0.925626
4.70167,0.925511
4.72406,0.925389
4.74645,0.925296
4.76884,0.925223
4.79123,0.92511
4.81362,0.924984
4.83601,0.924852
4.8584,0.924719
4.88079,0.924624
4.90317,0.924562
4.92556,0.924513
4.94795,0.924471
4.97034,0.924429
4.99273,0.92435
5.01512,0.924207
5.03751,0.92406
5.0599,0.923915
5.08229,0.923772
5.10467,0.923645
5.12706,0.923507
5.14945,0.923356
5.17184,0.923217
5.19423,0.923059
5.21662,0.922881
5.23901,0.92274
5.2614,0.922583
5.28379,0.922388
5.30617,0.922155
5.32856,0.921911
5.35095,0.921655
5.37334,0.921438
5.39573,0.921312
5.41812,0.921263
5.44051,0.921279
5.4629,0.921337
5.48529,0.921294
5.50768,0.921188
5.53006,0.921048
5.55245,0.92092
5.57484,0.920814
5.59723,0.920722
5.61962,0.920707
5.64201,0.92077
5.6644,0.920901
5.68679,0.921075
5.70918,0.9212
5.73156,0.921272
5.75395,0.921293
5.77634,0.921301
5.79873,0.921297
5.82112,0.921261
5.84351,0.921224
5.8659,0.921183
5.88829,0.92116
5.91068,0.921183
5.93306,0.921207
5.95545,0.921213
5.97784,0.92121
6.00023,0.921252
6.02262,0.921371
6.04501,0.921553
6.0674,0.921698
6.08979,0.921827
6.11218,0.921943
6.13456,0.922045
6.15695,0.922143
6.17934,0.922233
6.20173,0.922342
6.22412,0.922474
6.24651,0.92267
6.2689,0.922896
6.29129,0.923095
6.31368,0.923282
6.33607,0.923453
6.35845,0.923571
6.38084,0.923686
6.40323,0.923767
6.42562,0.923835
6.44801,0.92385
6.4704,0.923848
6.49279,0.923802
6.51518,0.923724
6.53757,0.923645
6.55995,0.923584
6.58234,0.923556
6.60473,0.923562
6.62712,0.923562
6.64951,0.923583
6.6719,0.923586
6.69429,0.923577
6.71668,0.923547
6.73907,0.92354
6.76145,0.923563
6.78384,0.923566
6.80623,0.923548
6.82862,0.9235
6.85101,0.923441
6.8734,0.923386
6.89579,0.923316
6.91818,0.923249
6.94057,0.923181
6.96296,0.923149
6.98534,0.923138
7.00773,0.923122
7.03012,0.923102
7.05251,0.923103
7.0749,0.923121
7.09729,0.923139
7.11968,0.92312
7.14207,0.923086
7.16446,0.923038
7.18684,0.923012
7.20923,0.922976
7.23162,0.922955
7.25401,0.922922
7.2764,0.922899
7.29879,0.922871
7.32118,0.922812
7.34357,0.922714
7.36596,0.922618
7.38834,0.922576
7.41073,0.922557
7.43312,0.922542
7.45551,0.922547
7.4779,0.922549
7.50029,0.922595
7.52268,0.922621
7.54507,0.922628
7.56746,0.922623
7.58984,0.922603
7.61223,0.922596
7.63462,0.922542
7.65701,0.922466
7.6794,0.922389
7.70179,0.922324
7.72418,0.922286
7.74657,0.922236
7.76896,0.922206
7.79135,0.922195
7.81373,0.922208
7.83612,0.922222
7.85851,0.922226
7.8809,0.922228
7.90329,0.922214
7.92568,0.922199
7.94807,0.922173
7.97046,0.922134
7.99285,0.922108
8.01523,0.922103
8.03762,0.922104
8.06001,0.922122
8.0824,0.922136
8.10479,0.922151
8.12718,0.922139
8.14957,0.922127
8.17196,0.922113
8.19435,0.922091
8.21673,0.922071
8.23912,0.922066
8.26151,0.922059
8.2839,0.922079
8.30629,0.922096
8.32868,0.922108
8.35107,0.922105
8.37346,0.922066
8.39585,0.922019
8.41824,0.921968
8.44062,0.921896
8.46301,0.921832
8.4854,0.92178
8.50779,0.921717
8.53018,0.921668
8.55257,0.921628
8.57496,0.921607
8.59735,0.921567
8.61974,0.921537
8.64212,0.921519
8.66451,0.921488
8.6869,0.921474
8.70929,0.921465
8.73168,0.921434
8.75407,0.921396
8.77646,0.921359
8.79885,0.9213
8.82124,0.921223
8.84362,0.921133
8.86601,0.921025
8.8884,0.92093
8.91079,0.920856
8.93318,0.920788
8.95557,0.920732
8.97796,0.920669
9.00035,0.920622
9.02274,0.920572
9.04512,0.920517
9.06751,0.920459
9.0899,0.920394
9.11229,0.920351
9.13468,0.920304
9.15707,0.920259
9.17946,0.920203
9.20185,0.92013
9.22424,0.920075
9.24663,0.92001
9.26901,0.919927
9.2914,0.919868
9.31379,0.919816
9.33618,0.919779
9.35857,0.919742
9.38096,0.919705
9.40335,0.919665
9.42574,0.919623
9.44813,0.919572
9.47051,0.919503
9.4929,0.919419
9.51529,0.91934
9.53768,0.919252
9.56007,0.919153
9.58246,0.91905
9.60485,0.918966
9.62724,0.918901
9.64963,0.918859
9.67201,0.918808
9.6944,0.91877
9.71679,0.918742
9.73918,0.918696
9.76157,0.918658
9.78396,0.918597
9.80635,0.918533
9.82874,0.918484
9.85113,0.918454
9.87352,0.918417
9.8959,0.918363
9.91829,0.918303
9.94068,0.918219
9.96307,0.9181
9.98546,0.917977
10.0078,0.917837
10.0302,0.91771
10.0526,0.917621
10.075,0.917573
10.0974,0.917515
10.1198,0.917454
10.1422,0.917392
10.1646,0.917319
10.187,0.917227
10.2093,0.91715
10.2317,0.917065
10.2541,0.916979
10.2765,0.916916
10.2989,0.916879
10.3213,0.916851
10.3437,0.916815
10.3661,0.9168
10.3885,0.916772
10.4108,0.916735
10.4332,0.916701
10.4556,0.916624
10.478,0.916528
10.5004,0.916431
10.5228,0.916348
10.5452,0.916278
10.5676,0.916204
10.59,0.916152
10.6123,0.916102
10.6347,0.916081
10.6571,0.91604
10.6795,0.915977
10.7019,0.915924
10.7243,0.915862
10.7467,0.915802
10.7691,0.915722
10.7915,0.915629
10.8138,0.915531
10.8362,0.915454
10.8586,0.915388
10.881,0.915303
10.9034,0.915233
10.9258,0.915168
10.9482,0.915096
10.9706,0.915011
10.993,0.914915
11.0154,0.914821
11.0377,0.914766
11.0601,0.914738
11.0825,0.914697
11.1049,0.914651
11.1273,0.914609
11.1497,0.914523
11.1721,0.914431
11.1945,0.914322
11.2169,0.914211
11.2392,0.914127
11.2616,0.914064
11.284,0.913993
11.3064,0.913923
11.3288,0.91384
11.3512,0.913769
11.3736,0.913679
11.396,0.913582
11.4184,0.913487
11.4407,0.913392
11.4631,0.913315
11.4855,0.913217
11.5079,0.913134
11.5303,0.91306
11.5527,0.912988
11.5751,0.912933
11.5975,0.912873
11.6199,0.9128
11.6422,0.912719
11.6646,0.91263
11.687,0.912523
11.7094,0.912421
11.7318,0.912327
11.7542,0.912227
11.7766,0.912137
11.799,0.912061
11.8214,0.91198
11.8437,0.9119
11.8661,0.911808
11.8885,0.911725
11.9109,0.911632
11.9333,0.911546
11.9557,0.911468
11.9781,0.911388
12.0005,0.911312
12.0229,0.911252
12.0452,0.911166
12.0676,0.911073
12.09,0.910992
12.1124,0.910908
12.1348,0.910814
12.1572,0.910724
12.1796,0.91063
12.202,0.910528
12.2244,0.910438
12.2467,0.910362
12.2691,0.910252
12.2915,0.910126
12.3139,0.910025
12.3363,0.909942
12.3587,0.909867
12.3811,0.909801
12.4035,0.909725
12.4259,0.909643
12.4482,0.909562
12.4706,0.909477
12.493,0.909374
12.5154,0.909278
12.5378,0.909201
12.5602,0.909147
12.5826,0.90909
12.605,0.909052
12.6274,0.909019
12.6497,0.908952
12.6721,0.908884
12.6945,0.908808
12.7169,0.908713
12.7393,0.908639
12.7617,0.908536
12.7841,0.908407
12.8065,0.908257
12.8289,0.908133
12.8512,0.908027
12.8736,0.90794
12.896,0.907865
12.9184,0.907801
12.9408,0.907736
12.9632,0.907679
12.9856,0.907599
13.008,0.907505
13.0304,0.907378
13.0527,0.907258
13.0751,0.907158
13.0975,0.907056
13.1199,0.90696
13.1423,0.906903
13.1647,0.906833
13.1871,0.906753
13.2095,0.906684
13.2319,0.906616
13.2542,0.906514
13.2766,0.906416
13.299,0.906304
13.3214,0.9062
13.3438,0.906137
13.3662,0.906082
13.3886,0.905997
13.411,0.905909
13.4334,0.905812
13.4557,0.905706
13.4781,0.905603
13.5005,0.905493
13.5229,0.905365
13.5453,0.905261
13.5677,0.905175
13.5901,0.905074
13.6125,0.904972
13.6349,0.904879
13.6572,0.904776
13.6796,0.904683
13.702,0.9046
13.7244,0.904492
13.7468,0.904379
13.7692,0.904253
13.7916,0.904147
13.814,0.904054
13.8364,0.903987
13.8587,0.903939
13.8811,0.9039
13.9035,0.903842
13.9259,0.903754
13.9483,0.903628
13.9707,0.903508
13.9931,0.903358
14.0155,0.903231
14.0379,0.903131
14.0602,0.903041
14.0826,0.902955
14.105,0.902856
14.1274,0.90272
14.1498,0.902579
14.1722,0.902437
14.1946,0.902304
14.217,0.902173
14.2394,0.902053
14.2617,0.901956
14.2841,0.901873
14.3065,0.901774
14.3289,0.90167
14.3513,0.901579
14.3737,0.901486
14.3961,0.901401
14.4185,0.901303
14.4409,0.901206
14.4632,0.901082
14.4856,0.90098
14.508,0.900891
14.5304,0.900781
14.5528,0.900659
14.5752,0.900547
14.5976,0.900426
14.62,0.900329
14.6424,0.90023
14.6647,0.900135
14.6871,0.900039
14.7095,0.899935
14.7319,0.899828
14.7543,0.89971
14.7767,0.899563
14.7991,0.899433
14.8215,0.899316
14.8439,0.89923
14.8662,0.899178
14.8886,0.899156
14.911,0.899134
14.9334,0.899073
14.9558,0.899002
14.9782,0.898916
15.0006,0.898799
15.023,0.898664
15.0454,0.898525
15.0677,0.89838
15.0901,0.898246
15.1125,0.898113
15.1349,0.897984
15.1573,0.897857
15.1797,0.897735
15.2021,0.897603
15.2245,0.897456
15.2469,0.897321
15.2692,0.897184
15.2916,0.897033
15.314,0.896904
15.3364,0.896784
15.3588,0.896689
15.3812,0.896615
15.4036,0.896524
15.426,0.896417
15.4484,0.896316
15.4707,0.896221
15.4931,0.896092
15.5155,0.895944
15.5379,0.895793
15.5603,0.895644
15.5827,0.895508
15.6051,0.895396
15.6275,0.895277
15.6499,0.895169
15.6722,0.895065
15.6946,0.894959
15.717,0.894841
15.7394,0.894721
15.7618,0.894607
15.7842,0.894506
15.8066,0.894402
15.829,0.894282
15.8514,0.894147
15.8737,0.894004
15.8961,0.893859
15.9185,0.893712
15.9409,0.893574
15.9633,0.893476
15.9857,0.893364
16.0081,0.893256
16.0305,0.893139
16.0529,0.893019
16.0752,0.892908
16.0976,0.89279
16.12,0.892685
16.1424,0.892545
16.1648,0.89241
16.1872,0.892277
16.2096,0.892106
16.232,0.89196
16.2544,0.891819
16.2767,0.891694
16.2991,0.891572
16.3215,0.891455
16.3439,0.891327
16.3663,0.89117
16.3887,0.891005
16.4111,0.890844
16.4335,0.890704
16.4559,0.890583
16.4782,0.89045
16.5006,0.890308
16.523,0.890162
16.5454,0.890022
16.5678,0.889871
16.5902,0.88971
16.6126,0.889545
16.635,0.8894
16.6574,0.889277
16.6797,0.889148
16.7021,0.889006
16.7245,0.888857
16.7469,0.888699
16.7693,0.888553
16.7917,0.888415
16.8141,0.888264
16.8365,0.88813
16.8589,0.888027
16.8812,0.887918
16.9036,0.887793
16.926,0.887652
16.9484,0.887493
16.9708,0.887331
16.9932,0.887159
17.0156,0.886984
17.038,0.886817
17.0604,0.886669
17.0827,0.886542
17.1051,0.886391
17.1275,0.886241
17.1499,0.886089
17.1723,0.885943
17.1947,0.885823
17.2171,0.885678
17.2395,0.885541
17.2619,0.885399
17.2842,0.885256
17.3066,0.885105
17.329,0.884926
17.3514,0.884764
17.3738,0.884611
17.3962,0.884467
17.4186,0.884311
17.441,0.884128
17.4634,0.883974
17.4857,0.883809
17.5081,0.883658
17.5305,0.883491
17.5529,0.883311
17.5753,0.883141
17.5977,0.88298
17.6201,0.882812
17.6425,0.882602
17.6649,0.88239
17.6872,0.882206
17.7096,0.882029
17.732,0.881852
17.7544,0.881682
17.7768,0.881503
17.7992,0.881335
17.8216,0.881167
17.844,0.880999
17.8664,0.880805
17.8887,0.880596
17.9111,0.880409
17.9335,0.880249
17.9559,0.880081
17.9783,0.879926
18.0007,0.87976
18.0231,0.879595
18.0455,0.879416
18.0679,0.879237
18.0902,0.879033
18.1126,0.878836
18.135,0.878675
18.1574,0.878526
18.1798,0.878373
18.2022,0.878221
18.2246,0.878059
18.247,0.877885
18.2694,0.877699
18.2918,0.877523
18.3141,0.877338
18.3365,0.877185
18.3589,0.877041
18.3813,0.8769
18.4037,0.876766
18.4261,0.876602
18.4485,0.876431
18.4709,0.876249
18.4933,0.876052
18.5156,0.875856
18.538,0.875647
18.5604,0.87544
18.5828,0.875231
18.6052,0.875031
18.6276,0.874845
18.65,0.874632
18.6724,0.874423
18.6948,0.874244
18.7171,0.874068
18.7395,0.873873
18.7619,0.873689
18.7843,0.873498
18.8067,0.873302
18.8291,0.87312
18.8515,0.872951
18.8739,0.872781
18.8963,0.872615
18.9186,0.872464
18.941,0.872297
18.9634,0.872093
18.9858,0.871891
19.0082,0.871652
19.0306,0.871414
19.053,0.871184
19.0754,0.870955
19.0978,0.870744
19.1201,0.870536
19.1425,0.870327
19.1649,0.87012
19.1873,0.869903
19.2097,0.869697
19.2321,0.869473
19.2545,0.86927
19.2769,0.869054
19.2993,0.86885
19.3216,0.868664
19.344,0.868472
19.3664,0.868278
19.3888,0.868059
19.4112,0.867833
19.4336,0.867612
19.456,0.867388
19.4784,0.867149
19.5008,0.866914
19.5231,0.86668
19.5455,0.866448
19.5679,0.86621
19.5903,0.865991
19.6127,0.86577
19.6351,0.865561
19.6575,0.865357
19.6799,0.865133
19.7023,0.864886
19.7246,0.864628
19.747,0.864361
19.7694,0.86409
19.7918,0.863814
19.8142,0.863557
19.8366,0.863312
19.859,0.863057
19.8814,0.862788
19.9038,0.862498
19.9261,0.86223
19.9485,0.861965
19.9709,0.861713
19.9933,0.861442
20.0157,0.861171
20.0381,0.860909
20.0605,0.860675
20.0829,0.860433
20.1053,0.860195
20.1276,0.859948
20.15,0.859703
20.1724,0.859443
20.1948,0.859185
20.2172,0.858919
20.2396,0.858648
20.262,0.8584
20.2844,0.858168
20.3068,0.85791
20.3291,0.857636
20.3515,0.857329
20.3739,0.857008
20.3963,0.856708
20.4187,0.856433
20.4411,0.85617
20.4635,0.8559
20.4859,0.855664
20.5083,0.855437
20.5306,0.855214
20.553,0.854993
20.5754,0.854758
20.5978,0.854514
20.6202,0.85427
20.6426,0.854017
20.665,0.853728
20.6874,0.853438
20.7098,0.853167
20.7321,0.852919
20.7545,0.852672
20.7769,0.852408
20.7993,0.852125
20.8217,0.851849
20.8441,0.851577
20.8665,0.8513
20.8889,0.851
20.9113,0.850722
20.9336,0.850454
20.956,0.850181
20.9784,0.849889
21.0008,0.849585
21.0232,0.849286
21.0456,0.849002
21.068,0.848737
21.0904,0.848452
21.1128,0.848155
21.1351,0.847886
21.1575,0.847628
21.1799,0.847352
21.2023,0.847065
21.2247,0.846769
21.2471,0.846502
21.2695,0.846215
21.2919,0.845911
21.3143,0.845564
21.3366,0.845208
21.359,0.844889
21.3814,0.844587
21.4038,0.844303
21.4262,0.844016
21.4486,0.84375
21.471,0.843503
21.4934,0.843237
21.5158,0.84292
21.5381,0.842577
21.5605,0.842233
21.5829,0.841901
21.6053,0.84157
21.6277,0.841252
21.6501,0.840932
21.6725,0.840616
21.6949,0.840321
21.7173,0.840032
21.7396,0.839727
21.762,0.839425
21.7844,0.839123
21.8068,0.838807
21.8292,0.838496
21.8516,0.838197
21.874,0.837887
21.8964,0.837563
21.9188,0.837255
21.9411,0.836948
21.9635,0.836641
21.9859,0.836331
22.0083,0.836011
22.0307,0.835686
22.0531,0.835372
22.0755,0.835035
22.0979,0.834674
22.1203,0.834298
22.1426,0.83394
22.165,0.833584
22.1874,0.833201
22.2098,0.832828
22.2322,0.832445
22.2546,0.832082
22.277,0.831741
22.2994,0.831401
22.3218,0.831078
22.3441,0.830748
22.3665,0.83043
22.3889,0.830075
22.4113,0.829683
22.4337,0.829299
22.4561,0.8289
22.4785,0.828525