File: smoothed_normalized_data/40.0mA3msec-0.2mA27msec.csv
Capacity_mAh,Voltage_V
0.0,1.0
0.0754723,0.996577
0.150945,0.993245
0.226417,0.990003
0.301889,0.98685
0.377362,0.983786
0.452834,0.980808
0.528306,0.977915
0.603779,0.975107
0.679251,0.972382
0.754723,0.969738
0.830196,0.967175
0.905668,0.964692
0.98114,0.962287
1.05661,0.959958
1.13209,0.957706
1.20756,0.955528
1.28303,0.953424
1.3585,0.951391
1.43397,0.94943
1.50945,0.947538
1.58492,0.945715
1.66039,0.943959
1.73586,0.942269
1.81134,0.940644
1.88681,0.939082
1.96228,0.937584
2.03775,0.936146
2.11323,0.934768
2.1887,0.933449
2.26417,0.932188
2.33964,0.930983
2.41511,0.929834
2.49059,0.928738
2.56606,0.927695
2.64153,0.926704
2.717,0.925763
2.79248,0.924871
2.86795,0.924028
2.94342,0.92323
3.01889,0.922479
3.09437,0.921771
3.16984,0.921107
3.24531,0.920485
3.32078,0.919903
3.39626,0.91936
3.47173,0.918856
3.5472,0.918389
3.62267,0.917958
3.69814,0.917561
3.77362,0.917198
3.84909,0.916867
3.92456,0.916567
4.00003,0.916297
4.07551,0.916055
4.15098,0.915841
4.22645,0.915652
4.30192,0.915489
4.3774,0.915349
4.45287,0.915232
4.52834,0.915378
4.60381,0.915659
4.67928,0.915785
4.75476,0.91583
4.83023,0.915833
4.9057,0.915806
4.98117,0.915753
5.05665,0.91568
5.13212,0.915593
5.20759,0.915494
5.28306,0.915385
5.35854,0.91527
5.43401,0.915149
5.50948,0.915023
5.58495,0.914894
5.66043,0.914764
5.7359,0.914634
5.81137,0.914502
5.88684,0.914364
5.96231,0.914226
6.03779,0.914086
6.11326,0.913938
6.18873,0.913792
6.2642,0.913651
6.33968,0.913508
6.41515,0.913361
6.49062,0.91321
6.56609,0.913059
6.64157,0.91291
6.71704,0.912771
6.79251,0.912639
6.86798,0.91251
6.94346,0.912382
7.01893,0.912257
7.0944,0.912137
7.16987,0.912023
7.24534,0.911909
7.32082,0.9118
7.39629,0.911697
7.47176,0.911601
7.54723,0.911516
7.62271,0.911443
7.69818,0.911377
7.77365,0.911313
7.84912,0.911258
7.9246,0.911208
8.00007,0.911165
8.07554,0.911128
8.15101,0.911094
8.22648,0.911067
8.30196,0.911048
8.37743,0.911037
8.4529,0.911031
8.52837,0.911026
8.60385,0.911022
8.67932,0.911024
8.75479,0.911027
8.83026,0.911031
8.90574,0.911042
8.98121,0.911056
9.05668,0.911067
9.13215,0.911081
9.20763,0.911098
9.2831,0.911119
9.35857,0.911142
9.43404,0.911161
9.50951,0.911176
9.58499,0.911191
9.66046,0.911204
9.73593,0.911213
9.8114,0.911222
9.88688,0.911223
9.96235,0.911222
10.0378,0.911216
10.1133,0.911202
10.1888,0.911183
10.2642,0.911166
10.3397,0.911149
10.4152,0.911132
10.4907,0.911112
10.5661,0.911093
10.6416,0.911072
10.7171,0.911053
10.7925,0.911036
10.868,0.911021
10.9435,0.911012
11.019,0.911004
11.0944,0.910999
11.1699,0.910997
11.2454,0.910993
11.3209,0.910992
11.3963,0.910994
11.4718,0.910997
11.5473,0.911002
11.6227,0.911009
11.6982,0.911014
11.7737,0.911017
11.8492,0.91102
11.9246,0.911025
12.0001,0.911032
12.0756,0.911044
12.151,0.911052
12.2265,0.91106
12.302,0.911069
12.3775,0.911079
12.4529,0.911091
12.5284,0.911105
12.6039,0.911121
12.6794,0.911141
12.7548,0.911161
12.8303,0.911181
12.9058,0.911199
12.9812,0.911215
13.0567,0.911232
13.1322,0.911254
13.2077,0.91128
13.2831,0.91131
13.3586,0.911342
13.4341,0.911384
13.5095,0.911428
13.585,0.911473
13.6605,0.911521
13.736,0.911576
13.8114,0.911631
13.8869,0.911683
13.9624,0.911739
14.0379,0.911803
14.1133,0.911868
14.1888,0.911933
14.2643,0.912003
14.3397,0.912075
14.4152,0.912152
14.4907,0.912232
14.5662,0.912316
14.6416,0.912398
14.7171,0.912477
14.7926,0.912553
14.8681,0.912631
14.9435,0.912709
15.019,0.912782
15.0945,0.91286
15.1699,0.912939
15.2454,0.913013
15.3209,0.913086
15.3964,0.913163
15.4718,0.913245
15.5473,0.913333
15.6228,0.913422
15.6982,0.913508
15.7737,0.91359
15.8492,0.91367
15.9247,0.913753
16.0001,0.913838
16.0756,0.913925
16.1511,0.914017
16.2266,0.914114
16.302,0.914214
16.3775,0.914318
16.453,0.914421
16.5284,0.914522
16.6039,0.914616
16.6794,0.914708
16.7549,0.914801
16.8303,0.914891
16.9058,0.914983
16.9813,0.915073
17.0567,0.915162
17.1322,0.915252
17.2077,0.915339
17.2832,0.915424
17.3586,0.915504
17.4341,0.915579
17.5096,0.915655
17.5851,0.915729
17.6605,0.915805
17.736,0.915879
17.8115,0.915954
17.8869,0.91602
17.9624,0.916082
18.0379,0.916147
18.1134,0.916215
18.1888,0.91628
18.2643,0.916346
18.3398,0.916403
18.4153,0.916454
18.4907,0.916504
18.5662,0.916555
18.6417,0.9166
18.7171,0.916645
18.7926,0.916684
18.8681,0.916723
18.9436,0.916758
19.019,0.916795
19.0945,0.916832
19.17,0.916874
19.2454,0.916913
19.3209,0.916955
19.3964,0.916989
19.4719,0.917033
19.5473,0.917072
19.6228,0.917111
19.6983,0.917144
19.7738,0.917175
19.8492,0.917204
19.9247,0.917235
20.0002,0.91727
20.0756,0.9173
20.1511,0.917326
20.2266,0.917352
20.3021,0.917377
20.3775,0.917392
20.453,0.917405
20.5285,0.917416
20.6039,0.917423
20.6794,0.917432
20.7549,0.91744
20.8304,0.917444
20.9058,0.917444
20.9813,0.91744
21.0568,0.917434
21.1323,0.91743
21.2077,0.917427
21.2832,0.917424
21.3587,0.917418
21.4341,0.917406
21.5096,0.91739
21.5851,0.917376
21.6606,0.917361
21.736,0.917343
21.8115,0.917325
21.887,0.917302
21.9625,0.917281
22.0379,0.917262
22.1134,0.917244
22.1889,0.917224
22.2643,0.917202
22.3398,0.917178
22.4153,0.917152
22.4908,0.917121
22.5662,0.917091
22.6417,0.917055
22.7172,0.917017
22.7926,0.916976
22.8681,0.916936
22.9436,0.916897
23.0191,0.916858
23.0945,0.91682
23.17,0.916783
23.2455,0.916749
23.321,0.916715
23.3964,0.916678
23.4719,0.916641
23.5474,0.916599
23.6228,0.916558
23.6983,0.916521
23.7738,0.916485
23.8493,0.916446
23.9247,0.916403
24.0002,0.916364
24.0757,0.916328
24.1511,0.916291
24.2266,0.916253
24.3021,0.916218
24.3776,0.916181
24.453,0.91614
24.5285,0.916098
24.604,0.916052
24.6795,0.916009
24.7549,0.915969
24.8304,0.91593
24.9059,0.915888
24.9813,0.915846
25.0568,0.915808
25.1323,0.915763
25.2078,0.915712
25.2832,0.915663
25.3587,0.915613
25.4342,0.915562
25.5097,0.915508
25.5851,0.915457
25.6606,0.915409
25.7361,0.915359
25.8115,0.915308
25.887,0.915259
25.9625,0.915214
26.038,0.915169
26.1134,0.915123
26.1889,0.915072
26.2644,0.915018
26.3398,0.914967
26.4153,0.914916
26.4908,0.914864
26.5663,0.914818
26.6417,0.914773
26.7172,0.914727
26.7927,0.914685
26.8682,0.91464
26.9436,0.914593
27.0191,0.914545
27.0946,0.914495
27.17,0.914443
27.2455,0.914388
27.321,0.914332
27.3965,0.914279
27.4719,0.914227
27.5474,0.914177
27.6229,0.914124
27.6983,0.914075
27.7738,0.91403
27.8493,0.913988
27.9248,0.91395
28.0002,0.913913
28.0757,0.913875
28.1512,0.913838
28.2267,0.913797
28.3021,0.913749
28.3776,0.913703
28.4531,0.913654
28.5285,0.913604
28.604,0.913555
28.6795,0.913508
28.755,0.913467
28.8304,0.913426
28.9059,0.913388
28.9814,0.913344
29.0568,0.913299
29.1323,0.913256
29.2078,0.913208
29.2833,0.913162
29.3587,0.91312
29.4342,0.913079
29.5097,0.913036
29.5852,0.912995
29.6606,0.912951
29.7361,0.912903
29.8116,0.912853
29.887,0.912804
29.9625,0.912758
30.038,0.912715
30.1135,0.912669
30.1889,0.912624
30.2644,0.912577
30.3399,0.91253
30.4154,0.912487
30.4908,0.912449
30.5663,0.912411
30.6418,0.912373
30.7172,0.912336
30.7927,0.912299
30.8682,0.912266
30.9437,0.912233
31.0191,0.912197
31.0946,0.912161
31.1701,0.912125
31.2455,0.912091
31.321,0.912058
31.3965,0.912025
31.472,0.912001
31.5474,0.911976
31.6229,0.911953
31.6984,0.911932
31.7739,0.911913
31.8493,0.911896
31.9248,0.911879
32.0003,0.91186
32.0757,0.911841
32.1512,0.911823
32.2267,0.911805
32.3022,0.911784
32.3776,0.911767
32.4531,0.911753
32.5286,0.911737
32.604,0.911731
32.6795,0.911712
32.755,0.911688
32.8305,0.91167
32.9059,0.911657
32.9814,0.911642
33.0569,0.911619
33.1324,0.911596
33.2078,0.911575
33.2833,0.911551
33.3588,0.911523
33.4342,0.9115
33.5097,0.911478
33.5852,0.91146
33.6607,0.911443
33.7361,0.911416
33.8116,0.911386
33.8871,0.911353
33.9626,0.91132
34.038,0.911279
34.1135,0.911239
34.189,0.911207
34.2644,0.911171
34.3399,0.911135
34.4154,0.911099
34.4909,0.911066
34.5663,0.911032
34.6418,0.91099
34.7173,0.910945
34.7927,0.910904
34.8682,0.910863
34.9437,0.910817
35.0192,0.910775
35.0946,0.910734
35.1701,0.91069
35.2456,0.910649
35.3211,0.910608
35.3965,0.91057
35.472,0.910534
35.5475,0.9105
35.6229,0.910459
35.6984,0.910416
35.7739,0.910368
35.8494,0.910318
35.9248,0.910271
36.0003,0.910225
36.0758,0.910177
36.1512,0.910128
36.2267,0.910075
36.3022,0.91002
36.3777,0.909968
36.4531,0.909914
36.5286,0.90986
36.6041,0.909805
36.6796,0.90975
36.755,0.909695
36.8305,0.909635
36.906,0.909574
36.9814,0.909508
37.0569,0.909444
37.1324,0.909378
37.2079,0.909314
37.2833,0.909251
37.3588,0.909187
37.4343,0.909123
37.5098,0.909059
37.5852,0.908996
37.6607,0.908932
37.7362,0.908869
37.8116,0.908803
37.8871,0.908736
37.9626,0.908666
38.0381,0.908597
38.1135,0.908526
38.189,0.908463
38.2645,0.908397
38.3399,0.908335
38.4154,0.908275
38.4909,0.908213
38.5664,0.908147
38.6418,0.908082
38.7173,0.908018
38.7928,0.907953
38.8683,0.90789
38.9437,0.90783
39.0192,0.907773
39.0947,0.907714
39.1701,0.907653
39.2456,0.907591
39.3211,0.90753
39.3966,0.907473
39.472,0.907419
39.5475,0.907364
39.623,0.907308
39.6984,0.907254
39.7739,0.907197
39.8494,0.907136
39.9249,0.907074
40.0003,0.907016
40.0758,0.906957
40.1513,0.906897
40.2268,0.906838
40.3022,0.906779
40.3777,0.906721
40.4532,0.906659
40.5286,0.906598
40.6041,0.906536
40.6796,0.906473
40.7551,0.906413
40.8305,0.906356
40.906,0.906301
40.9815,0.906246
41.057,0.906193
41.1324,0.906142
41.2079,0.906091
41.2834,0.906043
41.3588,0.905995
41.4343,0.905951
41.5098,0.905909
41.5853,0.905861
41.6607,0.905818
41.7362,0.905781
41.8117,0.905742
41.8871,0.905699
41.9626,0.905653
42.0381,0.905612
42.1136,0.90557
42.189,0.905525
42.2645,0.905483
42.34,0.905441
42.4155,0.905397
42.4909,0.905352
42.5664,0.905307
42.6419,0.905259
42.7173,0.905212
42.7928,0.905169
42.8683,0.905125
42.9438,0.905081
43.0192,0.905039
43.0947,0.904997
43.1702,0.904953
43.2456,0.90491
43.3211,0.904868
43.3966,0.904824
43.4721,0.904781
43.5475,0.904737
43.623,0.904696
43.6985,0.904658
43.774,0.904619
43.8494,0.904583
43.9249,0.904547
44.0004,0.904507
44.0758,0.904461
44.1513,0.904419
44.2268,0.904377
44.3023,0.904336
44.3777,0.904295
44.4532,0.904248
44.5287,0.904198
44.6042,0.90415
44.6796,0.904102
44.7551,0.904051
44.8306,0.904006
44.906,0.903961
44.9815,0.903917
45.057,0.903872
45.1325,0.903828
45.2079,0.903787
45.2834,0.903746
45.3589,0.903706
45.4343,0.903669
45.5098,0.90363
45.5853,0.903593
45.6608,0.903559
45.7362,0.90352
45.8117,0.903478
45.8872,0.903436
45.9627,0.903393
46.0381,0.903348
46.1136,0.903302
46.1891,0.903256
46.2645,0.903209
46.34,0.903162
46.4155,0.903114
46.491,0.903066
46.5664,0.903017
46.6419,0.902967
46.7174,0.902915
46.7928,0.902863
46.8683,0.902812
46.9438,0.902765
47.0193,0.90271
47.0947,0.902651
47.1702,0.902592
47.2457,0.902534
47.3212,0.902472
47.3966,0.902404
47.4721,0.902335
47.5476,0.902269
47.623,0.902206
47.6985,0.902143
47.774,0.902079
47.8495,0.902014
47.9249,0.901947
48.0004,0.901874
48.0759,0.901803
48.1514,0.901732
48.2268,0.901662
48.3023,0.901593
48.3778,0.901521
48.4532,0.901444
48.5287,0.90137
48.6042,0.901295
48.6797,0.901218
48.7551,0.901141
48.8306,0.901071
48.9061,0.901001
48.9815,0.900931
49.057,0.90086
49.1325,0.90079
49.208,0.900722
49.2834,0.900654
49.3589,0.900587
49.4344,0.900521
49.5099,0.900456
49.5853,0.900389
49.6608,0.900326
49.7363,0.900268
49.8117,0.900205
49.8872,0.900146
49.9627,0.900087
50.0382,0.900029
50.1136,0.89997
50.1891,0.899911
50.2646,0.899852
50.34,0.899793
50.4155,0.899729
50.491,0.899664
50.5665,0.8996
50.6419,0.899536
50.7174,0.89947
50.7929,0.899403
50.8684,0.899333
50.9438,0.899266
51.0193,0.899199
51.0948,0.899133
51.1702,0.899066
51.2457,0.899
51.3212,0.898936
51.3967,0.898871
51.4721,0.898806
51.5476,0.898739
51.6231,0.898674
51.6986,0.898607
51.774,0.898539
51.8495,0.898471
51.925,0.898405
52.0004,0.89834
52.0759,0.898273
52.1514,0.898209
52.2269,0.898142
52.3023,0.898077
52.3778,0.898011
52.4533,0.897944
52.5287,0.897877
52.6042,0.897808
52.6797,0.897741
52.7552,0.897676
52.8306,0.897608
52.9061,0.897539
52.9816,0.897471
53.0571,0.897404
53.1325,0.897337
53.208,0.897272
53.2835,0.897208
53.3589,0.897143
53.4344,0.89708
53.5099,0.897019
53.5854,0.896959
53.6608,0.896898
53.7363,0.896837
53.8118,0.896774
53.8872,0.89671
53.9627,0.896646
54.0382,0.896582
54.1137,0.896517
54.1891,0.896451
54.2646,0.896385
54.3401,0.896318
54.4156,0.89625
54.491,0.896179
54.5665,0.896106
54.642,0.896028
54.7174,0.895953
54.7929,0.895877
54.8684,0.895803
54.9439,0.895727
55.0193,0.895648
55.0948,0.895569
55.1703,0.895491
55.2458,0.895411
55.3212,0.895331
55.3967,0.895253
55.4722,0.895174
55.5476,0.895096
55.6231,0.895016
55.6986,0.894938
55.7741,0.89486
55.8495,0.894782
55.925,0.894702
56.0005,0.894627
56.0759,0.89455
56.1514,0.894471
56.2269,0.894388
56.3024,0.894307
56.3778,0.894225
56.4533,0.894144
56.5288,0.894062
56.6043,0.893978
56.6797,0.893889
56.7552,0.893802
56.8307,0.893714
56.9061,0.893628
56.9816,0.893542
57.0571,0.893454
57.1326,0.893367
57.208,0.893281
57.2835,0.893196
57.359,0.893112
57.4344,0.893027
57.5099,0.892941
57.5854,0.892855
57.6609,0.89277
57.7363,0.892685
57.8118,0.8926
57.8873,0.892517
57.9628,0.892433
58.0382,0.89235
58.1137,0.892268
58.1892,0.892187
58.2646,0.892106
58.3401,0.892024
58.4156,0.891943
58.4911,0.891865
58.5665,0.891786
58.642,0.891709
58.7175,0.89163
58.793,0.891552
58.8684,0.891474
58.9439,0.891395
59.0194,0.891316
59.0948,0.891239
59.1703,0.89116
59.2458,0.891083
59.3213,0.891005
59.3967,0.890929
59.4722,0.890852
59.5477,0.890774
59.6231,0.890697
59.6986,0.890621
59.7741,0.890543
59.8496,0.890467
59.925,0.890391
60.0005,0.890313
60.076,0.890235
60.1515,0.890158
60.2269,0.89008
60.3024,0.890002
60.3779,0.889925
60.4533,0.889846
60.5288,0.889769
60.6043,0.889691
60.6798,0.889613
60.7552,0.889535
60.8307,0.889458
60.9062,0.889381
60.9816,0.889303
61.0571,0.889224
61.1326,0.889144
61.2081,0.889067
61.2835,0.88899
61.359,0.888914
61.4345,0.88884
61.51,0.888766
61.5854,0.88869
61.6609,0.888616
61.7364,0.888538
61.8118,0.888462
61.8873,0.888383
61.9628,0.888306
62.0383,0.888229
62.1137,0.888153
62.1892,0.888074
62.2647,0.887992
62.3402,0.887914
62.4156,0.887834
62.4911,0.887752
62.5666,0.887667
62.642,0.887581
62.7175,0.887494
62.793,0.887406
62.8685,0.887319
62.9439,0.88723
63.0194,0.88714
63.0949,0.887051
63.1703,0.886963
63.2458,0.886874
63.3213,0.886784
63.3968,0.886692
63.4722,0.886601
63.5477,0.886511
63.6232,0.886423
63.6987,0.886333
63.7741,0.886243
63.8496,0.886152
63.9251,0.88606
64.0005,0.885968
64.076,0.885878
64.1515,0.885785
64.227,0.885695
64.3024,0.885602
64.3779,0.885511
64.4534,0.88542
64.5288,0.885326
64.6043,0.885233
64.6798,0.885138
64.7553,0.885042
64.8307,0.884944
64.9062,0.884844
64.9817,0.88474
65.0572,0.884639
65.1326,0.884538
65.2081,0.884437
65.2836,0.88433
65.359,0.884226
65.4345,0.884123
65.51,0.884021
65.5855,0.883917
65.6609,0.883815
65.7364,0.883714
65.8119,0.883611
65.8874,0.883509
65.9628,0.883406
66.0383,0.883302
66.1138,0.883202
66.1892,0.883102
66.2647,0.883
66.3402,0.8829
66.4157,0.882799
66.4911,0.882698
66.5666,0.882599
66.6421,0.882501
66.7175,0.882402
66.793,0.882302
66.8685,0.882203
66.944,0.882103
67.0194,0.882002
67.0949,0.8819
67.1704,0.881799
67.2459,0.881698
67.3213,0.881598
67.3968,0.881499
67.4723,0.8814
67.5477,0.881299
67.6232,0.881198
67.6987,0.881097
67.7742,0.880996
67.8496,0.880897
67.9251,0.880798
68.0006,0.880698
68.076,0.880597
68.1515,0.880498
68.227,0.880399
68.3025,0.880298
68.3779,0.880197
68.4534,0.880098
68.5289,0.880002
68.6044,0.879904
68.6798,0.879807
68.7553,0.879711
68.8308,0.879613
68.9062,0.879518
68.9817,0.879424
69.0572,0.87933
69.1327,0.879236
69.2081,0.879142
69.2836,0.879048
69.3591,0.878953
69.4346,0.87886
69.51,0.878767
69.5855,0.878672
69.661,0.878577
69.7364,0.878481
69.8119,0.878385
69.8874,0.878289
69.9629,0.878193
70.0383,0.878097
70.1138,0.878003
70.1893,0.877908
70.2647,0.877811
70.3402,0.877714
70.4157,0.877614
70.4912,0.877514
70.5666,0.877415
70.6421,0.877315
70.7176,0.877217
70.7931,0.877118
70.8685,0.877019
70.944,0.87692
71.0195,0.876821
71.0949,0.876719
71.1704,0.876618
71.2459,0.876517
71.3214,0.876415
71.3968,0.876312
71.4723,0.876209
71.5478,0.876106
71.6232,0.876005
71.6987,0.875904
71.7742,0.875803
71.8497,0.875702
71.9251,0.875601
72.0006,0.875501
72.0761,0.875397
72.1516,0.875294
72.227,0.87519
72.3025,0.875086
72.378,0.874981
72.4534,0.874875
72.5289,0.874768
72.6044,0.874658
72.6799,0.874549
72.7553,0.874439
72.8308,0.874332
72.9063,0.874224
72.9818,0.874117
73.0572,0.874012
73.1327,0.873904
73.2082,0.873794
73.2836,0.873684
73.3591,0.873575
73.4346,0.873463
73.5101,0.873349
73.5855,0.873237
73.661,0.873125
73.7365,0.873012
73.8119,0.8729
73.8874,0.872787
73.9629,0.872673
74.0384,0.872557
74.1138,0.872441
74.1893,0.872321
74.2648,0.872203
74.3403,0.872086
74.4157,0.871967
74.4912,0.871847
74.5667,0.871729
74.6421,0.87161
74.7176,0.871491
74.7931,0.871371
74.8686,0.871253
74.944,0.871134
75.0195,0.871016
75.095,0.870896
75.1704,0.870778
75.2459,0.870659
75.3214,0.870538
75.3969,0.870416
75.4723,0.870295
75.5478,0.870174
75.6233,0.87005
75.6988,0.869927
75.7742,0.869805
75.8497,0.869684
75.9252,0.869561
76.0006,0.86944
76.0761,0.869317
76.1516,0.869196
76.2271,0.869076
76.3025,0.868957
76.378,0.868837
76.4535,0.868716
76.529,0.868593
76.6044,0.868473
76.6799,0.868352
76.7554,0.868231
76.8308,0.868108
76.9063,0.867987
76.9818,0.867867
77.0573,0.867747
77.1327,0.867626
77.2082,0.867508
77.2837,0.867389
77.3591,0.86727
77.4346,0.867149
77.5101,0.867028
77.5856,0.866906
77.661,0.866781
77.7365,0.866658
77.812,0.866534
77.8875,0.866409
77.9629,0.866282
78.0384,0.866155
78.1139,0.866027
78.1893,0.8659
78.2648,0.865773
78.3403,0.865646
78.4158,0.865519
78.4912,0.865391
78.5667,0.865263
78.6422,0.865135
78.7176,0.865009
78.7931,0.864882
78.8686,0.864752
78.9441,0.864624
79.0195,0.864496
79.095,0.86437
79.1705,0.864245
79.246,0.864119
79.3214,0.863995
79.3969,0.863872
79.4724,0.863746
79.5478,0.86362
79.6233,0.863493
79.6988,0.863365
79.7743,0.863237
79.8497,0.863109
79.9252,0.86298
80.0007,0.862851
80.0761,0.862721
80.1516,0.862589
80.2271,0.862456
80.3026,0.862323
80.378,0.862191
80.4535,0.862059
80.529,0.861928
80.6045,0.861796
80.6799,0.861663
80.7554,0.861528
80.8309,0.861393
80.9063,0.861259
80.9818,0.861124
81.0573,0.860991
81.1328,0.860857
81.2082,0.860723
81.2837,0.860588
81.3592,0.860455
81.4347,0.860322
81.5101,0.860192
81.5856,0.86006
81.6611,0.85993
81.7365,0.859798
81.812,0.859665
81.8875,0.859529
81.963,0.859395
82.0384,0.859258
82.1139,0.859123
82.1894,0.858986
82.2648,0.85885
82.3403,0.858715
82.4158,0.858579
82.4913,0.858445
82.5667,0.85831
82.6422,0.858173
82.7177,0.858035
82.7932,0.857896
82.8686,0.857756
82.9441,0.857617
83.0196,0.857478
83.095,0.85734
83.1705,0.857205
83.246,0.85707
83.3215,0.856933
83.3969,0.856796
83.4724,0.856658
83.5479,0.856519
83.6233,0.856381
83.6988,0.856243
83.7743,0.856103
83.8498,0.855963
83.9252,0.855826
84.0007,0.855686
84.0762,0.855549
84.1517,0.855409
84.2271,0.855268
84.3026,0.855129
84.3781,0.854992
84.4535,0.854854
84.529,0.854713
84.6045,0.854574
84.68,0.854435
84.7554,0.854295
84.8309,0.854154
84.9064,0.854013
84.9819,0.853871
85.0573,0.853728
85.1328,0.853586
85.2083,0.853442
85.2837,0.853298
85.3592,0.853153
85.4347,0.853009
85.5102,0.852866
85.5856,0.852723
85.6611,0.85258
85.7366,0.852436
85.812,0.852293
85.8875,0.852148
85.963,0.852003
86.0385,0.851857
86.1139,0.851708
86.1894,0.851558
86.2649,0.851406
86.3404,0.851253
86.4158,0.851099
86.4913,0.850944
86.5668,0.850789
86.6422,0.850635
86.7177,0.850478
86.7932,0.850321
86.8687,0.850164
86.9441,0.850006
87.0196,0.849848
87.0951,0.84969
87.1705,0.84953
87.246,0.849367
87.3215,0.849201
87.397,0.849037
87.4724,0.848872
87.5479,0.848705
87.6234,0.848537
87.6989,0.848367
87.7743,0.848196
87.8498,0.848024
87.9253,0.847852
88.0007,0.847678
88.0762,0.847502
88.1517,0.847324
88.2272,0.847143
88.3026,0.84696
88.3781,0.846775
88.4536,0.846589
88.5291,0.846403
88.6045,0.846217
88.68,0.84603
88.7555,0.84584
88.8309,0.845651
88.9064,0.845461
88.9819,0.84527
89.0574,0.845079
89.1328,0.84489
89.2083,0.844705
89.2838,0.844518
89.3592,0.844331
89.4347,0.844144
89.5102,0.843958
89.5857,0.843769
89.6611,0.843582
89.7366,0.843395
89.8121,0.843207
89.8876,0.843021
89.963,0.842836
90.0385,0.842649
90.114,0.842462
90.1894,0.842276
90.2649,0.842091
90.3404,0.841903
90.4159,0.841716
90.4913,0.841525
90.5668,0.841336
90.6423,0.841148
90.7177,0.840963
90.7932,0.84078
90.8687,0.840596
90.9442,0.840413
91.0196,0.840226
91.0951,0.840041
91.1706,0.839855
91.2461,0.839671
91.3215,0.839485
91.397,0.839298
91.4725,0.83911
91.5479,0.838918
91.6234,0.838728
91.6989,0.838538
91.7744,0.838349
91.8498,0.83816
91.9253,0.837969
92.0008,0.837778
92.0763,0.837586
92.1517,0.837393
92.2272,0.837201
92.3027,0.837008
92.3781,0.836813
92.4536,0.836618
92.5291,0.836424
92.6046,0.836231
92.68,0.836036
92.7555,0.835841
92.831,0.835645
92.9064,0.835448
92.9819,0.835249
93.0574,0.83505
93.1329,0.83485
93.2083,0.834653
93.2838,0.834452
93.3593,0.834252
93.4348,0.834051
93.5102,0.833853
93.5857,0.833651
93.6612,0.833449
93.7366,0.833246
93.8121,0.833041
93.8876,0.832835
93.9631,0.832631
94.0385,0.832426
94.114,0.832218
94.1895,0.832013
94.2649,0.831807
94.3404,0.831598
94.4159,0.83139
94.4914,0.831179
94.5668,0.83097
94.6423,0.83076
94.7178,0.830548
94.7933,0.830333
94.8687,0.830119
94.9442,0.829904
95.0197,0.829685
95.0951,0.829466
95.1706,0.829243
95.2461,0.829018
95.3216,0.828794
95.397,0.82857
95.4725,0.828343
95.548,0.828115
95.6235,0.827884
95.6989,0.827652
95.7744,0.82742
95.8499,0.827187
95.9253,0.826949
96.0008,0.826708
96.0763,0.826464
96.1518,0.826219
96.2272,0.825975
96.3027,0.825731
96.3782,0.825484
96.4536,0.825233
96.5291,0.82498
96.6046,0.824726
96.6801,0.824471
96.7555,0.824215
96.831,0.823958
96.9065,0.823701
96.982,0.823443
97.0574,0.823185
97.1329,0.822925
97.2084,0.822664
97.2838,0.822404
97.3593,0.822143
97.4348,0.821882
97.5103,0.821621
97.5857,0.82136
97.6612,0.821099
97.7367,0.820838
97.8121,0.820576
97.8876,0.820314
97.9631,0.820052
98.0386,0.81979
98.114,0.819525
98.1895,0.819259
98.265,0.818993
98.3405,0.818728
98.4159,0.818461
98.4914,0.818194
98.5669,0.817924
98.6423,0.817652
98.7178,0.817381
98.7933,0.817111
98.8688,0.816839
98.9442,0.816564
99.0197,0.816291
99.0952,0.816018
99.1707,0.815743
99.2461,0.815465
99.3216,0.815188
99.3971,0.814911
99.4725,0.814633
99.548,0.814353
99.6235,0.814071
99.699,0.813785
99.7744,0.813496
99.8499,0.813207
99.9254,0.812915
100.001,0.812624
100.076,0.81233
100.152,0.812033
100.227,0.811734
100.303,0.811434
100.378,0.811131
100.454,0.810827
100.529,0.810525
100.605,0.810219
100.68,0.809911
100.756,0.8096
100.831,0.809288
100.907,0.808973
100.982,0.808656
101.057,0.808337
101.133,0.808016
101.208,0.807694
101.284,0.80737
101.359,0.807044
101.435,0.806717
101.51,0.806387
101.586,0.806054
101.661,0.80572
101.737,0.805385
101.812,0.805048
101.888,0.804708
101.963,0.804368
102.039,0.804026
102.114,0.803682
102.19,0.803336
102.265,0.802986
102.34,0.802634
102.416,0.802279
102.491,0.801921
102.567,0.801562
102.642,0.801201
102.718,0.800835
102.793,0.80047
102.869,0.800106
102.944,0.799738
103.02,0.799368
103.095,0.798996
103.171,0.798619
103.246,0.798239
103.322,0.797858
103.397,0.797475
103.473,0.797089
103.548,0.796698
103.624,0.796302
103.699,0.795904
103.774,0.795503
103.85,0.795096
103.925,0.794684
104.001,0.794271
104.076,0.793856
104.152,0.79344
104.227,0.793021
104.303,0.792597
104.378,0.79217
104.454,0.79174
104.529,0.791309
104.605,0.790875
104.68,0.790439
104.756,0.789998
104.831,0.789552
104.907,0.789104
104.982,0.788653
105.057,0.7882
105.133,0.787741
105.208,0.78728
105.284,0.786816
105.359,0.786349
105.435,0.785879
105.51,0.785405
105.586,0.784928
105.661,0.78445
105.737,0.783968
105.812,0.783483
105.888,0.782997
105.963,0.782506
106.039,0.782013
106.114,0.781518
106.19,0.78102
106.265,0.780519
106.341,0.780016
106.416,0.77951
106.491,0.779002
106.567,0.77849
106.642,0.777974
106.718,0.77746
106.793,0.776964
106.869,0.776498
106.944,0.776026
107.02,0.775543
107.095,0.77505
107.171,0.774549
107.246,0.774039
107.322,0.773522
107.397,0.772997
107.473,0.77246
107.548,0.771916
107.624,0.771363
107.699,0.770799
107.774,0.770227
107.85,0.769666
107.925,0.769114
108.001,0.768561
108.076,0.768004
108.152,0.767442
108.227,0.766882
108.303,0.766315
108.378,0.765747
108.454,0.765174
108.529,0.764598
108.605,0.764018
108.68,0.763437
108.756,0.762853
108.831,0.762263
108.907,0.761668
108.982,0.76107
109.058,0.760466
109.133,0.759861
109.208,0.75925
109.284,0.758636
109.359,0.758019
109.435,0.757401
109.51,0.756776
109.586,0.756146
109.661,0.755509
109.737,0.754867
109.812,0.754221
109.888,0.75357
109.963,0.752914
110.039,0.752254
110.114,0.751589
110.19,0.750921
110.265,0.750245
110.341,0.74956
110.416,0.748871
110.492,0.748176
110.567,0.747476
110.642,0.746771
110.648,0.746716