File: smoothed_normalized_data/50.0mA1msec-0.2mA19msec.csv
Capacity_mAh,Voltage_V
0.0,1.0
0.130764,0.990524
0.261528,0.981723
0.392292,0.973573
0.523056,0.966051
0.65382,0.959131
0.784585,0.952791
0.915349,0.947005
1.04611,0.94175
1.17688,0.937001
1.30764,0.932734
1.4384,0.928926
1.56917,0.925551
1.69993,0.922586
1.8307,0.920007
1.96146,0.91779
2.09223,0.915909
2.22299,0.914342
2.35375,0.913064
2.48452,0.91205
2.61528,0.911278
2.74605,0.910721
2.87681,0.910357
3.00757,0.910596
3.13834,0.910564
3.2691,0.9104
3.39987,0.910196
3.53063,0.909991
3.66139,0.909802
3.79216,0.909634
3.92292,0.909485
4.05369,0.909354
4.18445,0.909241
4.31521,0.909136
4.44598,0.909032
4.57674,0.90889
4.70751,0.908764
4.83827,0.908639
4.96904,0.908506
5.0998,0.908362
5.23056,0.908209
5.36133,0.908053
5.49209,0.9079
5.62286,0.907744
5.75362,0.907589
5.88438,0.90744
6.01515,0.907288
6.14591,0.90714
6.27668,0.906996
6.40744,0.906858
6.5382,0.906727
6.66897,0.9066
6.79973,0.906481
6.9305,0.906367
7.06126,0.906257
7.19202,0.906156
7.32279,0.90606
7.45355,0.905959
7.58432,0.905853
7.71508,0.905743
7.84585,0.90564
7.97661,0.905541
8.10737,0.90545
8.23814,0.905367
8.3689,0.905285
8.49967,0.905208
8.63043,0.905139
8.76119,0.90508
8.89196,0.905025
9.02272,0.904977
9.15349,0.904937
9.28425,0.904903
9.41501,0.904875
9.54578,0.904846
9.67654,0.904823
9.80731,0.904808
9.93807,0.904793
10.0688,0.904779
10.1996,0.904771
10.3304,0.904775
10.4611,0.904777
10.5919,0.904768
10.7227,0.904749
10.8534,0.904725
10.9842,0.904699
11.1149,0.904671
11.2457,0.904643
11.3765,0.904613
11.5072,0.904584
11.638,0.904562
11.7688,0.904545
11.8995,0.904528
12.0303,0.904512
12.1611,0.904495
12.2918,0.904473
12.4226,0.904447
12.5534,0.904414
12.6841,0.904376
12.8149,0.904336
12.9456,0.904295
13.0764,0.904246
13.2072,0.904201
13.3379,0.904162
13.4687,0.904134
13.5995,0.904106
13.7302,0.904083
13.861,0.904065
13.9918,0.904048
14.1225,0.904035
14.2533,0.904029
14.384,0.904024
14.5148,0.904018
14.6456,0.90401
14.7763,0.904004
14.9071,0.904001
15.0379,0.903997
15.1686,0.903995
15.2994,0.904
15.4302,0.904012
15.5609,0.904014
15.6917,0.904
15.8225,0.903981
15.9532,0.903964
16.084,0.903936
16.2147,0.90389
16.3455,0.903853
16.4763,0.903806
16.607,0.903756
16.7378,0.90371
16.8686,0.903667
16.9993,0.903623
17.1301,0.903589
17.2609,0.903564
17.3916,0.90354
17.5224,0.903516
17.6532,0.903495
17.7839,0.903475
17.9147,0.903458
18.0454,0.903441
18.1762,0.903431
18.307,0.903427
18.4377,0.903437
18.5685,0.903448
18.6993,0.903465
18.83,0.903482
18.9608,0.903507
19.0916,0.903527
19.2223,0.903548
19.3531,0.903568
19.4838,0.903588
19.6146,0.903606
19.7454,0.903625
19.8761,0.903651
20.0069,0.903681
20.1377,0.903709
20.2684,0.903738
20.3992,0.903768
20.53,0.903808
20.6607,0.903848
20.7915,0.903888
20.9223,0.903926
21.053,0.903958
21.1838,0.903984
21.3145,0.904002
21.4453,0.904019
21.5761,0.904048
21.7068,0.904068
21.8376,0.904088
21.9684,0.904106
22.0991,0.904107
22.2299,0.904103
22.3607,0.904102
22.4914,0.904098
22.6222,0.904089
22.753,0.904081
22.8837,0.904074
23.0145,0.904067
23.1452,0.904059
23.276,0.904053
23.4068,0.904045
23.5375,0.904039
23.6683,0.904034
23.7991,0.904031
23.9298,0.904029
24.0606,0.904034
24.1914,0.904041
24.3221,0.904048
24.4529,0.904058
24.5836,0.904064
24.7144,0.904067
24.8452,0.904072
24.9759,0.904081
25.1067,0.904094
25.2375,0.904114
25.3682,0.904137
25.499,0.904169
25.6298,0.904208
25.7605,0.904249
25.8913,0.904291
26.0221,0.904335
26.1528,0.904384
26.2836,0.904429
26.4143,0.904462
26.5451,0.904495
26.6759,0.904527
26.8066,0.904557
26.9374,0.90458
27.0682,0.9046
27.1989,0.904606
27.3297,0.9046
27.4605,0.904581
27.5912,0.904558
27.722,0.90452
27.8528,0.904474
27.9835,0.90442
28.1143,0.904358
28.245,0.904292
28.3758,0.904223
28.5066,0.904158
28.6373,0.904087
28.7681,0.90401
28.8989,0.903929
29.0296,0.903849
29.1604,0.903776
29.2912,0.903702
29.4219,0.903629
29.5527,0.903557
29.6834,0.903481
29.8142,0.903406
29.945,0.903329
30.0757,0.903251
30.2065,0.903177
30.3373,0.903102
30.468,0.903037
30.5988,0.902978
30.7296,0.90292
30.8603,0.902864
30.9911,0.902809
31.1219,0.902764
31.2526,0.902731
31.3834,0.902692
31.5141,0.90265
31.6449,0.902601
31.7757,0.902556
31.9064,0.902512
32.0372,0.902462
32.168,0.902413
32.2987,0.902368
32.4295,0.902327
32.5603,0.902284
32.691,0.902232
32.8218,0.902164
32.9526,0.902101
33.0833,0.902037
33.2141,0.901982
33.3448,0.901925
33.4756,0.901863
33.6064,0.901802
33.7371,0.901738
33.8679,0.901677
33.9987,0.901616
34.1294,0.901558
34.2602,0.901498
34.391,0.901433
34.5217,0.901369
34.6525,0.901302
34.7832,0.901237
34.914,0.901166
35.0448,0.90109
35.1755,0.901014
35.3063,0.900938
35.4371,0.900862
35.5678,0.900789
35.6986,0.900716
35.8294,0.900646
35.9601,0.900574
36.0909,0.900508
36.2217,0.90044
36.3524,0.900368
36.4832,0.900305
36.6139,0.900241
36.7447,0.900181
36.8755,0.900127
37.0062,0.90007
37.137,0.90001
37.2678,0.899954
37.3985,0.899896
37.5293,0.899824
37.6601,0.899755
37.7908,0.899687
37.9216,0.899622
38.0523,0.899556
38.1831,0.899473
38.3139,0.899388
38.4446,0.899303
38.5754,0.899221
38.7062,0.899135
38.8369,0.899058
38.9677,0.898985
39.0985,0.89891
39.2292,0.898832
39.36,0.898752
39.4908,0.89868
39.6215,0.898615
39.7523,0.89855
39.883,0.898483
40.0138,0.898415
40.1446,0.898353
40.2753,0.898289
40.4061,0.89823
40.5369,0.898174
40.6676,0.898116
40.7984,0.898062
40.9292,0.898008
41.0599,0.89795
41.1907,0.897892
41.3215,0.897835
41.4522,0.897782
41.583,0.897733
41.7137,0.897685
41.8445,0.897638
41.9753,0.897595
42.106,0.897559
42.2368,0.897518
42.3676,0.89748
42.4983,0.897441
42.6291,0.897397
42.7599,0.897348
42.8906,0.897294
43.0214,0.897237
43.1521,0.897173
43.2829,0.897121
43.4137,0.897067
43.5444,0.897004
43.6752,0.89694
43.806,0.896874
43.9367,0.896812
44.0675,0.89675
44.1983,0.896684
44.329,0.896619
44.4598,0.896558
44.5906,0.896501
44.7213,0.896445
44.8521,0.89639
44.9828,0.896338
45.1136,0.896289
45.2444,0.896239
45.3751,0.896192
45.5059,0.896146
45.6367,0.896102
45.7674,0.896058
45.8982,0.896012
46.029,0.895963
46.1597,0.895914
46.2905,0.895867
46.4213,0.895821
46.552,0.895776
46.6828,0.895726
46.8135,0.895681
46.9443,0.895638
47.0751,0.895601
47.2058,0.895559
47.3366,0.895518
47.4674,0.895479
47.5981,0.895444
47.7289,0.89541
47.8597,0.895377
47.9904,0.895346
48.1212,0.895315
48.2519,0.895286
48.3827,0.895258
48.5135,0.895229
48.6442,0.895203
48.775,0.895177
48.9058,0.895151
49.0365,0.895124
49.1673,0.895095
49.2981,0.895071
49.4288,0.895045
49.5596,0.895018
49.6904,0.894988
49.8211,0.894959
49.9519,0.894934
50.0826,0.894909
50.2134,0.894886
50.3442,0.894868
50.4749,0.894844
50.6057,0.89482
50.7365,0.894793
50.8672,0.894773
50.998,0.894752
51.1288,0.894731
51.2595,0.894704
51.3903,0.89468
51.5211,0.894657
51.6518,0.894633
51.7826,0.894607
51.9133,0.894585
52.0441,0.894561
52.1749,0.894532
52.3056,0.894503
52.4364,0.894482
52.5672,0.894462
52.6979,0.894439
52.8287,0.894412
52.9595,0.894387
53.0902,0.894367
53.221,0.894345
53.3517,0.894323
53.4825,0.894297
53.6133,0.894269
53.744,0.894237
53.8748,0.894203
54.0056,0.894166
54.1363,0.894125
54.2671,0.894085
54.3979,0.894042
54.5286,0.893999
54.6594,0.893953
54.7902,0.893906
54.9209,0.893859
55.0517,0.893811
55.1824,0.893765
55.3132,0.893717
55.444,0.893668
55.5747,0.893621
55.7055,0.893564
55.8363,0.893508
55.967,0.893453
56.0978,0.893398
56.2286,0.893345
56.3593,0.89329
56.4901,0.89324
56.6209,0.893187
56.7516,0.893136
56.8824,0.893087
57.0131,0.893038
57.1439,0.892993
57.2747,0.892947
57.4054,0.892899
57.5362,0.892852
57.667,0.89281
57.7977,0.892769
57.9285,0.892733
58.0593,0.892696
58.19,0.892658
58.3208,0.892613
58.4515,0.892569
58.5823,0.892525
58.7131,0.89248
58.8438,0.892432
58.9746,0.892378
59.1054,0.892324
59.2361,0.892266
59.3669,0.892208
59.4977,0.892149
59.6284,0.892087
59.7592,0.892025
59.89,0.891965
60.0207,0.891904
60.1515,0.891839
60.2822,0.891772
60.413,0.891702
60.5438,0.891632
60.6745,0.891561
60.8053,0.891488
60.9361,0.891412
61.0668,0.891336
61.1976,0.891285
61.3284,0.89124
61.4591,0.891188
61.5899,0.891131
61.7206,0.891067
61.8514,0.890995
61.9822,0.890913
62.1129,0.890823
62.2437,0.890732
62.3745,0.89064
62.5052,0.890542
62.636,0.890436
62.7668,0.89033
62.8975,0.89022
63.0283,0.890107
63.1591,0.889997
63.2898,0.889893
63.4206,0.889785
63.5513,0.889677
63.6821,0.889568
63.8129,0.889459
63.9436,0.889347
64.0744,0.889225
64.2052,0.8891
64.3359,0.888981
64.4667,0.888864
64.5975,0.888756
64.7282,0.888656
64.859,0.888565
64.9898,0.888477
65.1205,0.888398
65.2513,0.88832
65.382,0.888249
65.5128,0.888182
65.6436,0.888119
65.7743,0.888059
65.9051,0.888005
66.0359,0.887956
66.1666,0.887919
66.2974,0.88788
66.4282,0.887851
66.5589,0.887828
66.6897,0.887827
66.8204,0.88788
66.9512,0.887906
67.082,0.887893
67.2127,0.887865
67.3435,0.887823
67.4743,0.887775
67.605,0.88771
67.7358,0.887632
67.8666,0.887546
67.9973,0.887454
68.1281,0.887353
68.2589,0.887224
68.3896,0.887086
68.5204,0.886942
68.6511,0.886791
68.7819,0.886636
68.9127,0.886486
69.0434,0.886329
69.1742,0.886168
69.305,0.886008
69.4357,0.885843
69.5665,0.885676
69.6973,0.885501
69.828,0.885334
69.9588,0.885177
70.0896,0.88503
70.2203,0.88489
70.3511,0.884755
70.4818,0.884628
70.6126,0.884504
70.7434,0.884387
70.8741,0.884273
71.0049,0.884168
71.1357,0.88407
71.2664,0.883984
71.3972,0.883905
71.528,0.88383
71.6587,0.883757
71.7895,0.883678
71.9202,0.883606
72.051,0.883555
72.1818,0.883516
72.3125,0.883488
72.4433,0.883485
72.5741,0.883427
72.7048,0.883371
72.8356,0.883311
72.9664,0.883249
73.0971,0.883189
73.2279,0.883118
73.3587,0.883058
73.4894,0.882998
73.6202,0.882936
73.7509,0.88287
73.8817,0.882794
74.0125,0.882726
74.1432,0.882664
74.274,0.882616
74.4048,0.882579
74.5355,0.882549
74.6663,0.882521
74.7971,0.882494
74.9278,0.882469
75.0586,0.882446
75.1894,0.882423
75.3201,0.882401
75.4509,0.882381
75.5816,0.882364
75.7124,0.882352
75.8432,0.882345
75.9739,0.882336
76.1047,0.882326
76.2355,0.882315
76.3662,0.882297
76.497,0.882269
76.6278,0.882238
76.7585,0.882199
76.8893,0.882151
77.02,0.882093
77.1508,0.882017
77.2816,0.88194
77.4123,0.881869
77.5431,0.881803
77.6739,0.881738
77.8046,0.881661
77.9354,0.88157
78.0662,0.881478
78.1969,0.881378
78.3277,0.881277
78.4585,0.881171
78.5892,0.881061
78.72,0.880952
78.8507,0.880839
78.9815,0.880736
79.1123,0.88063
79.243,0.880514
79.3738,0.880395
79.5046,0.880277
79.6353,0.880157
79.7661,0.880039
79.8969,0.879935
80.0276,0.879835
80.1584,0.879726
80.2892,0.879618
80.4199,0.879509
80.5507,0.879399
80.6814,0.879289
80.8122,0.879181
80.943,0.879073
81.0737,0.879008
81.2045,0.878934
81.3353,0.878856
81.466,0.878777
81.5968,0.878683
81.7276,0.878571
81.8583,0.878462
81.9891,0.87835
82.1198,0.878237
82.2506,0.878119
82.3814,0.877992
82.5121,0.877858
82.6429,0.877715
82.7737,0.877566
82.9044,0.877416
83.0352,0.877268
83.166,0.877101
83.2967,0.876926
83.4275,0.876744
83.5583,0.876562
83.689,0.876381
83.8198,0.876196
83.9505,0.876017
84.0813,0.87584
84.2121,0.875661
84.3428,0.875487
84.4736,0.875313
84.6044,0.87516
84.7351,0.875025
84.8659,0.874888
84.9967,0.874767
85.1274,0.874663
85.2582,0.874567
85.3889,0.874481
85.5197,0.874403
85.6505,0.874329
85.7812,0.874269
85.912,0.874222
86.0428,0.874192
86.1735,0.874172
86.3043,0.874163
86.4351,0.874164
86.5658,0.874178
86.6966,0.874203
86.8274,0.874225
86.9581,0.874213
87.0889,0.874219
87.2196,0.874213
87.3504,0.8742
87.4812,0.874196
87.6119,0.874193
87.7427,0.874175
87.8735,0.87415
88.0042,0.874113
88.135,0.874067
88.2658,0.874018
88.3965,0.873966
88.5273,0.873908
88.6581,0.873854
88.7888,0.873794
88.9196,0.873726
89.0503,0.873656
89.1811,0.873584
89.3119,0.8735
89.4426,0.873418
89.5734,0.873341
89.7042,0.873269
89.8349,0.873189
89.9657,0.87312
90.0965,0.873053
90.2272,0.872996
90.358,0.872941
90.4887,0.872877
90.6195,0.872815
90.7503,0.872749
90.881,0.872675
91.0118,0.872599
91.1426,0.872526
91.2733,0.872456
91.4041,0.872392
91.5349,0.872326
91.6656,0.872257
91.7964,0.872184
91.9272,0.872104
92.0579,0.87202
92.1887,0.871939
92.3194,0.871856
92.4502,0.871766
92.581,0.871669
92.7117,0.871566
92.8425,0.871452
92.9733,0.871338
93.104,0.871224
93.2348,0.871108
93.3656,0.870986
93.4963,0.870864
93.6271,0.870744
93.7579,0.870622
93.8886,0.870512
94.0194,0.870404
94.1501,0.870292
94.2809,0.870198
94.4117,0.8701
94.5424,0.869998
94.6732,0.869895
94.804,0.869792
94.9347,0.86969
95.0655,0.869584
95.1963,0.86948
95.327,0.869375
95.4578,0.869268
95.5885,0.869158
95.7193,0.869045
95.8501,0.868928
95.9808,0.868809
96.1116,0.868686
96.2424,0.868561
96.3731,0.868432
96.5039,0.868302
96.6347,0.868171
96.7654,0.868036
96.8962,0.867899
97.027,0.867759
97.1577,0.867617
97.2885,0.867473
97.4192,0.867323
97.55,0.867171
97.6808,0.867013
97.8115,0.866852
97.9423,0.866689
98.0731,0.866527
98.2038,0.866365
98.3346,0.866205
98.4654,0.866045
98.5961,0.865891
98.7269,0.865738
98.8577,0.865586
98.9884,0.865439
99.1192,0.865299
99.2499,0.865175
99.3807,0.865052
99.5115,0.864933
99.6422,0.86482
99.773,0.864711
99.9038,0.864605
100.035,0.864498
100.165,0.864389
100.296,0.864282
100.427,0.86418
100.558,0.864078
100.688,0.863975
100.819,0.863873
100.95,0.863772
101.081,0.863675
101.211,0.863566
101.342,0.863453
101.473,0.863338
101.604,0.863226
101.734,0.863113
101.865,0.862991
101.996,0.862868
102.127,0.862749
102.258,0.862629
102.388,0.862507
102.519,0.862386
102.65,0.862264
102.781,0.862143
102.911,0.862021
103.042,0.861894
103.173,0.861768
103.304,0.861644
103.434,0.861519
103.565,0.861398
103.696,0.861277
103.827,0.861161
103.957,0.861052
104.088,0.860938
104.219,0.860826
104.35,0.860724
104.481,0.860615
104.611,0.860509
104.742,0.860404
104.873,0.860304
105.004,0.860198
105.134,0.860094
105.265,0.859989
105.396,0.85988
105.527,0.859765
105.657,0.859645
105.788,0.859524
105.919,0.859401
106.05,0.859277
106.18,0.859149
106.311,0.859019
106.442,0.858885
106.573,0.858751
106.703,0.858614
106.834,0.858467
106.965,0.858317
107.096,0.858161
107.227,0.858011
107.357,0.857859
107.488,0.857702
107.619,0.857551
107.75,0.8574
107.88,0.857243
108.011,0.857085
108.142,0.856928
108.273,0.856776
108.403,0.856628
108.534,0.856479
108.665,0.856326
108.796,0.856174
108.926,0.856023
109.057,0.855876
109.188,0.855738
109.319,0.855603
109.45,0.855474
109.58,0.855336
109.711,0.855184
109.842,0.855042
109.973,0.854916
110.103,0.854779
110.234,0.854647
110.365,0.854514
110.496,0.854387
110.626,0.85426
110.757,0.854135
110.888,0.854012
111.019,0.853892
111.149,0.853779
111.28,0.853664
111.411,0.853551
111.542,0.853437
111.673,0.853317
111.803,0.853207
111.934,0.853091
112.065,0.852973
112.196,0.852855
112.326,0.85274
112.457,0.852629
112.588,0.85252
112.719,0.85242
112.849,0.852322
112.98,0.852221
113.111,0.852116
113.242,0.852009
113.372,0.851903
113.503,0.85179
113.634,0.851677
113.765,0.851567
113.896,0.851459
114.026,0.851347
114.157,0.851233
114.288,0.851114
114.419,0.850993
114.549,0.85087
114.68,0.85076
114.811,0.850644
114.942,0.850523
115.072,0.850389
115.203,0.85025
115.334,0.850118
115.465,0.849994
115.595,0.849872
115.726,0.849744
115.857,0.849614
115.988,0.849484
116.119,0.849361
116.249,0.849238
116.38,0.849116
116.511,0.849
116.642,0.84888
116.772,0.848759
116.903,0.848634
117.034,0.848505
117.165,0.848374
117.295,0.848247
117.426,0.84812
117.557,0.847994
117.688,0.84787
117.818,0.84775
117.949,0.847636
118.08,0.847526
118.211,0.847404
118.342,0.84728
118.472,0.84715
118.603,0.84701
118.734,0.846876
118.865,0.846742
118.995,0.846596
119.126,0.846436
119.257,0.846281
119.388,0.846138
119.518,0.846001
119.649,0.84586
119.78,0.84572
119.911,0.845581
120.041,0.845444
120.172,0.845306
120.303,0.845175
120.434,0.84504
120.564,0.844901
120.695,0.844761
120.826,0.844621
120.957,0.844479
121.088,0.844342
121.218,0.844206
121.349,0.844072
121.48,0.843933
121.611,0.843798
121.741,0.843668
121.872,0.843536
122.003,0.843407
122.134,0.843278
122.264,0.843143
122.395,0.843007
122.526,0.842873
122.657,0.842736
122.787,0.842598
122.918,0.842453
123.049,0.842301
123.18,0.842156
123.311,0.84202
123.441,0.841877
123.572,0.841729
123.703,0.841583
123.834,0.841435
123.964,0.84129
124.095,0.841157
124.226,0.841021
124.357,0.840889
124.487,0.840748
124.618,0.840609
124.749,0.840476
124.88,0.840351
125.01,0.84023
125.141,0.84011
125.272,0.839985
125.403,0.839857
125.534,0.839747
125.664,0.83969
125.795,0.839614
125.926,0.839524
126.057,0.83942
126.187,0.839307
126.318,0.839183
126.449,0.839047
126.58,0.838904
126.71,0.838754
126.841,0.838596
126.972,0.838428
127.103,0.838239
127.233,0.838038
127.364,0.837833
127.495,0.837626
127.626,0.837419
127.757,0.837206
127.887,0.836987
128.018,0.83676
128.149,0.836532
128.28,0.836296
128.41,0.836052
128.541,0.835796
128.672,0.835541
128.803,0.835294
128.933,0.835079
129.064,0.834882
129.195,0.83468
129.326,0.834474
129.456,0.834268
129.587,0.834059
129.718,0.833846
129.849,0.833621
129.98,0.833383
130.11,0.833142
130.241,0.832926
130.372,0.832703
130.503,0.832465
130.633,0.832234
130.764,0.832022
130.895,0.831821
131.026,0.831634
131.156,0.83147
131.287,0.831326
131.418,0.831139
131.549,0.830944
131.679,0.830759
131.81,0.830583
131.941,0.830414
132.072,0.830251
132.202,0.830091
132.333,0.829938
132.464,0.829795
132.595,0.829657
132.726,0.829523
132.856,0.829396
132.987,0.829285
133.118,0.829186
133.249,0.829097
133.379,0.829007
133.51,0.828917
133.641,0.828826
133.772,0.828737
133.902,0.828649
134.033,0.828567
134.164,0.828488
134.295,0.828419
134.425,0.828357
134.556,0.828307
134.687,0.82826
134.818,0.828154
134.949,0.828045
135.079,0.827931
135.21,0.827805
135.341,0.82767
135.472,0.827523
135.602,0.827367
135.733,0.827216
135.864,0.827061
135.995,0.826892
136.125,0.826701
136.256,0.826532
136.387,0.826363
136.518,0.826193
136.648,0.826023
136.779,0.825854
136.91,0.825689
137.041,0.825524
137.172,0.825357
137.302,0.825194
137.433,0.825034
137.564,0.824873
137.695,0.824715
137.825,0.824558
137.956,0.824402
138.087,0.82425
138.218,0.824099
138.348,0.823944
138.479,0.823787
138.61,0.823627
138.741,0.823467
138.871,0.823307
139.002,0.823145
139.133,0.822975
139.264,0.822802
139.395,0.822628
139.525,0.822449
139.656,0.822269
139.787,0.822084
139.918,0.821896
140.048,0.821707
140.179,0.821516
140.31,0.821326
140.441,0.821134
140.571,0.820951
140.702,0.820765
140.833,0.820567
140.964,0.82036
141.094,0.820146
141.225,0.819919
141.356,0.81969
141.487,0.819464
141.618,0.819245
141.748,0.819023
141.879,0.818802
142.01,0.818584
142.141,0.818362
142.271,0.818137
142.402,0.817915
142.533,0.817696
142.664,0.817469
142.794,0.817234
142.925,0.817004
143.056,0.816777
143.187,0.816547
143.317,0.816323
143.448,0.8161
143.579,0.81587
143.71,0.815642
143.84,0.815415
143.971,0.815187
144.102,0.814954
144.233,0.814722
144.364,0.814485
144.494,0.81425
144.625,0.814017
144.756,0.813788
144.887,0.813559
145.017,0.81333
145.148,0.813097
145.279,0.812861
145.41,0.812626
145.54,0.81239
145.671,0.812157
145.802,0.811923
145.933,0.811686
146.063,0.811445
146.194,0.8112
146.325,0.810946
146.456,0.81068
146.587,0.81041
146.717,0.810139
146.848,0.80987
146.979,0.809606
147.11,0.809344
147.24,0.809082
147.371,0.808819
147.502,0.80855
147.633,0.808282
147.763,0.808005
147.894,0.807722
148.025,0.807441
148.156,0.807159
148.286,0.806869
148.417,0.806582
148.548,0.806299
148.679,0.806016
148.81,0.805727
148.94,0.805442
149.071,0.805149
149.202,0.804852
149.333,0.804562
149.463,0.804274
149.594,0.803981
149.725,0.803683
149.856,0.803389
149.986,0.803098
150.117,0.802808
150.248,0.802526
150.379,0.802245
150.509,0.801969
150.64,0.801694
150.771,0.801418
150.902,0.801147
151.033,0.800879
151.163,0.800618
151.294,0.800357
151.425,0.800101
151.556,0.799853
151.686,0.799605
151.817,0.79936
151.948,0.79912
152.079,0.798878
152.209,0.798636
152.34,0.79839
152.471,0.798147
152.602,0.797896
152.732,0.797641
152.863,0.797384
152.994,0.797121
153.125,0.796849
153.256,0.796572
153.386,0.796287
153.517,0.795996
153.648,0.795697
153.779,0.795396
153.909,0.795087
154.04,0.794769
154.171,0.794441
154.302,0.794108
154.432,0.793771
154.563,0.793428
154.694,0.793081
154.825,0.792732
154.955,0.79238
155.086,0.79202
155.217,0.791651
155.348,0.79127
155.479,0.790887
155.609,0.790508
155.74,0.790129
155.871,0.789754
156.002,0.78938
156.132,0.789013
156.263,0.788647
156.394,0.788285
156.525,0.787933
156.655,0.787582
156.786,0.787241
156.917,0.786907
157.048,0.786578
157.178,0.786256
157.309,0.785933
157.44,0.785607
157.571,0.78529
157.701,0.784982
157.832,0.784678
157.963,0.784369
158.094,0.78405
158.225,0.783728
158.355,0.783406
158.486,0.783088
158.617,0.782782
158.748,0.782472
158.878,0.782171
159.009,0.781874
159.14,0.781583
159.271,0.781301
159.401,0.781032
159.532,0.780795
159.663,0.78056
159.794,0.78032
159.924,0.78005
160.055,0.779753
160.186,0.779426
160.317,0.779069
160.448,0.778683
160.578,0.77826
160.709,0.777804
160.84,0.777316
160.971,0.776795
161.101,0.776249
161.232,0.775675
161.363,0.77508
161.494,0.774461
161.624,0.773816
161.755,0.773146
161.886,0.772456
162.017,0.771745
162.147,0.771026
162.278,0.770294
162.409,0.769557
162.54,0.768816
162.671,0.768067
162.801,0.767314
162.932,0.766562
163.063,0.765814
163.194,0.765078
163.324,0.764346
163.455,0.763616
163.586,0.762881
163.717,0.762162
163.847,0.761466
163.978,0.760796
164.109,0.760153
164.24,0.759539
164.37,0.758939
164.501,0.758366
164.632,0.757818
164.763,0.757294
164.894,0.756785
165.024,0.756293
165.155,0.755814
165.286,0.75531
165.417,0.754784
165.547,0.754242
165.678,0.7537
165.809,0.753165
165.94,0.752631
166.07,0.752103
166.201,0.751581
166.332,0.751062
166.463,0.750555
166.593,0.75005
166.724,0.749563
166.855,0.749083
166.986,0.748623
167.117,0.748178
167.247,0.747745
167.378,0.747324
167.509,0.746923
167.64,0.746545
167.77,0.746189
167.901,0.745852
168.032,0.745537
168.163,0.74524
168.293,0.744958
168.424,0.744696
168.555,0.744452
168.686,0.744226
168.816,0.744017
168.947,0.743818
169.078,0.743632
169.209,0.743459
169.339,0.7433
169.47,0.743149
169.601,0.743015
169.732,0.742891
169.863,0.74277
169.993,0.742648
170.124,0.742526
170.255,0.742406
170.386,0.742285
170.516,0.742161
170.647,0.742039
170.778,0.741919
170.909,0.741796
171.039,0.741674
171.17,0.741554
171.301,0.741436
171.432,0.741316
171.562,0.741192
171.693,0.741069
171.824,0.740949
171.955,0.740826
172.086,0.740702
172.216,0.740579
172.347,0.740459
172.478,0.740342
172.609,0.74022
172.739,0.7401
172.87,0.739981
173.001,0.739863
173.132,0.739746
173.262,0.739629
173.393,0.739517
173.524,0.739409
173.655,0.739306
173.785,0.739204
173.916,0.7391
174.047,0.738998
174.178,0.738897
174.309,0.738799
174.439,0.738706
174.57,0.738607
174.701,0.738508
174.832,0.738413
174.962,0.738313
175.093,0.738215
175.224,0.738124
175.355,0.738039
175.485,0.737954
175.616,0.737863
175.747,0.73777
175.878,0.737677
176.008,0.737583
176.139,0.737484
176.27,0.737389
176.401,0.737299
176.532,0.737211
176.662,0.73712
176.793,0.737032
176.924,0.736947
177.055,0.736859
177.185,0.736767
177.316,0.736672
177.447,0.736581
177.578,0.736482
177.708,0.736383
177.839,0.736287
177.97,0.736189
178.101,0.736093
178.231,0.735993
178.362,0.735889
178.493,0.735788
178.624,0.735685
178.755,0.735578
178.885,0.735472
179.016,0.735371
179.147,0.73527
179.278,0.735165
179.408,0.73506
179.539,0.734953
179.67,0.734849
179.801,0.734752
179.931,0.734654
180.062,0.73456
180.193,0.734462
180.324,0.734363
180.454,0.734266
180.585,0.734168
180.716,0.734072
180.847,0.733978
180.977,0.733885
181.108,0.73379
181.239,0.733688
181.37,0.73358
181.501,0.733475
181.631,0.733366
181.762,0.733261
181.893,0.73316
182.024,0.733062
182.154,0.73296
182.285,0.732857
182.416,0.732755
182.547,0.732648
182.677,0.732538
182.808,0.732426
182.939,0.73231
183.07,0.73219
183.2,0.732068
183.331,0.731948
183.462,0.731824
183.593,0.731694
183.724,0.731558
183.854,0.73142
183.985,0.73128
184.116,0.731137
184.247,0.730993
184.377,0.730846
184.508,0.730703
184.639,0.730558
184.77,0.73041
184.9,0.730259
185.031,0.730116
185.162,0.729973
185.293,0.729828
185.423,0.729686
185.554,0.729543
185.685,0.729397
185.816,0.729246
185.947,0.729092
186.077,0.728938
186.208,0.728785
186.339,0.728631
186.47,0.728474
186.6,0.728317
186.731,0.728158
186.862,0.727996
186.993,0.727831
187.123,0.727664
187.254,0.727499
187.385,0.727333
187.516,0.727165
187.646,0.727001
187.777,0.72684
187.908,0.726681
188.039,0.726528
188.17,0.726368
188.3,0.726211
188.431,0.726056
188.562,0.725895
188.693,0.725736
188.823,0.725573
188.954,0.725409
189.085,0.725242
189.216,0.725072
189.346,0.724904
189.477,0.724738
189.608,0.724571
189.739,0.724402
189.869,0.72423
190,0.724052
190.131,0.723872
190.262,0.723692
190.393,0.72351
190.523,0.72333
190.654,0.723151
190.785,0.72297
190.916,0.722781
191.046,0.722592
191.177,0.722402
191.308,0.722211
191.439,0.72202
191.569,0.721829
191.7,0.721639
191.831,0.721449
191.962,0.721259
192.092,0.72107
192.223,0.720883
192.354,0.720696
192.485,0.720511
192.616,0.720327
192.746,0.720145
192.877,0.719965
193.008,0.719787
193.139,0.719612
193.269,0.719439
193.4,0.719268
193.437,0.71922