File: oddballs/norm_smooth/30.0mA4msec-0.2mA6msec.csv
Capacity_mAh,Voltage_V
0.0,1.0
0.0218833,0.999601
0.0437666,0.999202
0.0656498,0.998805
0.0875331,0.998408
0.109416,0.998013
0.1313,0.997619
0.153183,0.997226
0.175066,0.996834
0.196949,0.996443
0.218833,0.996052
0.240716,0.995663
0.262599,0.995276
0.284483,0.994889
0.306366,0.994503
0.328249,0.994118
0.350132,0.993734
0.372016,0.993351
0.393899,0.992969
0.415782,0.992589
0.437666,0.992209
0.459549,0.99183
0.481432,0.991453
0.503315,0.991076
0.525199,0.9907
0.547082,0.990326
0.568965,0.989952
0.590848,0.98958
0.612732,0.989208
0.634615,0.988838
0.656498,0.988468
0.678382,0.9881
0.700265,0.987732
0.722148,0.987366
0.744031,0.987
0.765915,0.986636
0.787798,0.986272
0.809681,0.98591
0.831565,0.985548
0.853448,0.985188
0.875331,0.984828
0.897214,0.98447
0.919098,0.984112
0.940981,0.983756
0.962864,0.9834
0.984747,0.983046
1.00663,0.982692
1.02851,0.98234
1.0504,0.981988
1.07228,0.981638
1.09416,0.981288
1.11605,0.98094
1.13793,0.980592
1.15981,0.980245
1.1817,0.9799
1.20358,0.979555
1.22546,0.979211
1.24735,0.978869
1.26923,0.978527
1.29111,0.978186
1.313,0.977846
1.33488,0.977507
1.35676,0.97717
1.37865,0.976833
1.40053,0.976497
1.42241,0.976162
1.4443,0.975828
1.46618,0.975494
1.48806,0.975162
1.50995,0.974831
1.53183,0.974501
1.55371,0.974172
1.5756,0.973843
1.59748,0.973516
1.61936,0.97319
1.64125,0.972864
1.66313,0.972539
1.68501,0.972216
1.7069,0.971893
1.72878,0.971572
1.75066,0.971251
1.77255,0.970931
1.79443,0.970612
1.81631,0.970294
1.8382,0.969977
1.86008,0.969661
1.88196,0.969346
1.90385,0.969031
1.92573,0.968718
1.94761,0.968406
1.96949,0.968094
1.99138,0.967784
2.01326,0.967474
2.03514,0.967165
2.05703,0.966858
2.07891,0.966551
2.10079,0.966245
2.12268,0.96594
2.14456,0.965636
2.16644,0.965332
2.18833,0.96503
2.21021,0.964729
2.23209,0.964428
2.25398,0.964129
2.27586,0.96383
2.29774,0.963532
2.31963,0.963235
2.34151,0.962939
2.36339,0.962644
2.38528,0.96235
2.40716,0.962057
2.42904,0.961764
2.45093,0.961473
2.47281,0.961182
2.49469,0.960892
2.51658,0.960603
2.53846,0.960315
2.56034,0.960028
2.58223,0.959742
2.60411,0.959457
2.62599,0.959172
2.64788,0.958889
2.66976,0.958606
2.69164,0.958324
2.71353,0.958043
2.73541,0.957763
2.75729,0.957484
2.77918,0.957206
2.80106,0.956928
2.82294,0.956652
2.84483,0.956376
2.86671,0.956101
2.88859,0.955827
2.91048,0.955554
2.93236,0.955282
2.95424,0.95501
2.97613,0.95474
2.99801,0.95447
3.01989,0.954201
3.04178,0.953933
3.06366,0.953666
3.08554,0.9534
3.10743,0.953134
3.12931,0.95287
3.15119,0.952606
3.17308,0.952343
3.19496,0.952081
3.21684,0.951819
3.23873,0.951559
3.26061,0.951299
3.28249,0.951041
3.30437,0.950783
3.32626,0.950526
3.34814,0.950269
3.37002,0.950014
3.39191,0.949759
3.41379,0.949506
3.43567,0.949253
3.45756,0.949001
3.47944,0.948749
3.50132,0.948499
3.52321,0.948249
3.54509,0.948
3.56697,0.947752
3.58886,0.947505
3.61074,0.947259
3.63262,0.947013
3.65451,0.946768
3.67639,0.946524
3.69827,0.946281
3.72016,0.946039
3.74204,0.945797
3.76392,0.945556
3.78581,0.945317
3.80769,0.945077
3.82957,0.944839
3.85146,0.944601
3.87334,0.944365
3.89522,0.944129
3.91711,0.943894
3.93899,0.943659
3.96087,0.943426
3.98276,0.943193
4.00464,0.942961
4.02652,0.94273
4.04841,0.942499
4.07029,0.942269
4.09217,0.94204
4.11406,0.941812
4.13594,0.941585
4.15782,0.941358
4.17971,0.941133
4.20159,0.940908
4.22347,0.940683
4.24536,0.94046
4.26724,0.940237
4.28912,0.940015
4.31101,0.939794
4.33289,0.939574
4.35477,0.939354
4.37666,0.939135
4.39854,0.938917
4.42042,0.9387
4.44231,0.938483
4.46419,0.938267
4.48607,0.938052
4.50796,0.937838
4.52984,0.937624
4.55172,0.937411
4.5736,0.937199
4.59549,0.936988
4.61737,0.936777
4.63925,0.936568
4.66114,0.936358
4.68302,0.93615
4.7049,0.935942
4.72679,0.935735
4.74867,0.935529
4.77055,0.935324
4.79244,0.935119
4.81432,0.934915
4.8362,0.934712
4.85809,0.934509
4.87997,0.934308
4.90185,0.934107
4.92374,0.933906
4.94562,0.933707
4.9675,0.933508
4.98939,0.93331
5.01127,0.933112
5.03315,0.932915
5.05504,0.932719
5.07692,0.932524
5.0988,0.93233
5.12069,0.932136
5.14257,0.931942
5.16445,0.93175
5.18634,0.931558
5.20822,0.931367
5.2301,0.931177
5.25199,0.930987
5.27387,0.930798
5.29575,0.93061
5.31764,0.930422
5.33952,0.930236
5.3614,0.930049
5.38329,0.929864
5.40517,0.929679
5.42705,0.929495
5.44894,0.929312
5.47082,0.929129
5.4927,0.928947
5.51459,0.928766
5.53647,0.928585
5.55835,0.928405
5.58024,0.928226
5.60212,0.928047
5.624,0.927869
5.64589,0.927692
5.66777,0.927515
5.68965,0.927339
5.71154,0.927164
5.73342,0.92699
5.7553,0.926816
5.77719,0.926642
5.79907,0.92647
5.82095,0.926298
5.84284,0.926127
5.86472,0.925956
5.8866,0.925786
5.90848,0.925617
5.93037,0.925448
5.95225,0.92528
5.97413,0.925113
5.99602,0.924946
6.0179,0.92478
6.03978,0.924615
6.06167,0.92445
6.08355,0.924286
6.10543,0.924123
6.12732,0.92396
6.1492,0.923798
6.17108,0.923636
6.19297,0.923476
6.21485,0.923315
6.23673,0.923156
6.25862,0.922997
6.2805,0.922838
6.30238,0.922681
6.32427,0.922524
6.34615,0.922367
6.36803,0.922212
6.38992,0.922056
6.4118,0.921902
6.43368,0.921748
6.45557,0.921595
6.47745,0.921442
6.49933,0.92129
6.52122,0.921138
6.5431,0.920987
6.56498,0.920837
6.58687,0.920688
6.60875,0.920539
6.63063,0.92039
6.65252,0.920242
6.6744,0.920095
6.69628,0.919949
6.71817,0.919803
6.74005,0.919657
6.76193,0.919513
6.78382,0.919368
6.8057,0.919225
6.82758,0.919082
6.84947,0.918939
6.87135,0.918798
6.89323,0.918656
6.91512,0.918516
6.937,0.918376
6.95888,0.918236
6.98077,0.918097
7.00265,0.917959
7.02453,0.917821
7.04642,0.917684
7.0683,0.917548
7.09018,0.917412
7.11207,0.917276
7.13395,0.917142
7.15583,0.917007
7.17771,0.916874
7.1996,0.916741
7.22148,0.916608
7.24336,0.916476
7.26525,0.916345
7.28713,0.916214
7.30901,0.916084
7.3309,0.915954
7.35278,0.915825
7.37466,0.915696
7.39655,0.915568
7.41843,0.915441
7.44031,0.915314
7.4622,0.915188
7.48408,0.915062
7.50596,0.914937
7.52785,0.914812
7.54973,0.914688
7.57161,0.914564
7.5935,0.914441
7.61538,0.914318
7.63726,0.914196
7.65915,0.914075
7.68103,0.913954
7.70291,0.913834
7.7248,0.913714
7.74668,0.913595
7.76856,0.913476
7.79045,0.913358
7.81233,0.91324
7.83421,0.913123
7.8561,0.913006
7.87798,0.91289
7.89986,0.912774
7.92175,0.912659
7.94363,0.912545
7.96551,0.912431
7.9874,0.912317
8.00928,0.912204
8.03116,0.912092
8.05305,0.91198
8.07493,0.911868
8.09681,0.911757
8.1187,0.911647
8.14058,0.911537
8.16246,0.911427
8.18435,0.911318
8.20623,0.91121
8.22811,0.911102
8.25,0.910994
8.27188,0.910887
8.29376,0.910781
8.31565,0.910675
8.33753,0.91057
8.35941,0.910465
8.3813,0.91036
8.40318,0.910256
8.42506,0.910153
8.44695,0.91005
8.46883,0.909947
8.49071,0.909845
8.51259,0.909744
8.53448,0.909642
8.55636,0.909542
8.57824,0.909442
8.60013,0.909342
8.62201,0.909243
8.64389,0.909144
8.66578,0.909046
8.68766,0.908948
8.70954,0.908851
8.73143,0.908754
8.75331,0.908658
8.77519,0.908562
8.79708,0.908466
8.81896,0.908371
8.84084,0.908277
8.86273,0.908183
8.88461,0.908089
8.90649,0.907996
8.92838,0.907903
8.95026,0.907811
8.97214,0.907719
8.99403,0.907628
9.01591,0.907537
9.03779,0.907447
9.05968,0.907357
9.08156,0.907267
9.10344,0.907178
9.12533,0.907089
9.14721,0.907001
9.16909,0.906913
9.19098,0.906826
9.21286,0.906739
9.23474,0.906653
9.25663,0.906566
9.27851,0.906481
9.30039,0.906396
9.32228,0.906311
9.34416,0.906226
9.36604,0.906143
9.38793,0.906059
9.40981,0.905976
9.43169,0.905893
9.45358,0.905811
9.47546,0.905729
9.49734,0.905648
9.51923,0.905567
9.54111,0.905486
9.56299,0.905406
9.58488,0.905326
9.60676,0.905247
9.62864,0.905168
9.65053,0.905089
9.67241,0.905011
9.69429,0.904933
9.71618,0.904856
9.73806,0.904779
9.75994,0.904703
9.78182,0.904627
9.80371,0.904551
9.82559,0.904475
9.84747,0.9044
9.86936,0.904326
9.89124,0.904252
9.91312,0.904178
9.93501,0.904104
9.95689,0.904031
9.97877,0.903959
10.0007,0.903886
10.0225,0.903815
10.0444,0.903743
10.0663,0.903672
10.0882,0.903601
10.1101,0.903531
10.132,0.903461
10.1538,0.903391
10.1757,0.903322
10.1976,0.903253
10.2195,0.903184
10.2414,0.903116
10.2633,0.903048
10.2851,0.902981
10.307,0.902914
10.3289,0.902847
10.3508,0.902781
10.3727,0.902715
10.3946,0.902649
10.4164,0.902584
10.4383,0.902519
10.4602,0.902454
10.4821,0.90239
10.504,0.902326
10.5259,0.902262
10.5477,0.902199
10.5696,0.902136
10.5915,0.902074
10.6134,0.902012
10.6353,0.90195
10.6572,0.901888
10.679,0.901827
10.7009,0.901766
10.7228,0.901706
10.7447,0.901645
10.7666,0.901586
10.7885,0.901526
10.8103,0.901467
10.8322,0.901408
10.8541,0.901349
10.876,0.901291
10.8979,0.901233
10.9198,0.901176
10.9416,0.901118
10.9635,0.901061
10.9854,0.901005
11.0073,0.900948
11.0292,0.900892
11.0511,0.900837
11.0729,0.900781
11.0948,0.900726
11.1167,0.900671
11.1386,0.900617
11.1605,0.900563
11.1824,0.900509
11.2042,0.900455
11.2261,0.900402
11.248,0.900349
11.2699,0.900296
11.2918,0.900244
11.3137,0.900192
11.3355,0.90014
11.3574,0.900089
11.3793,0.900037
11.4012,0.899986
11.4231,0.899936
11.445,0.899885
11.4668,0.899835
11.4887,0.899785
11.5106,0.899736
11.5325,0.899687
11.5544,0.899638
11.5763,0.899589
11.5981,0.89954
11.62,0.899492
11.6419,0.899444
11.6638,0.899397
11.6857,0.899349
11.7076,0.899302
11.7294,0.899255
11.7513,0.899209
11.7732,0.899163
11.7951,0.899117
11.817,0.899071
11.8389,0.899025
11.8607,0.89898
11.8826,0.898935
11.9045,0.89889
11.9264,0.898846
11.9483,0.898801
11.9702,0.898757
11.992,0.898714
12.0139,0.89867
12.0358,0.898627
12.0577,0.898584
12.0796,0.898541
12.1015,0.898498
12.1233,0.898456
12.1452,0.898414
12.1671,0.898372
12.189,0.898331
12.2109,0.898289
12.2328,0.898248
12.2546,0.898207
12.2765,0.898166
12.2984,0.898126
12.3203,0.898086
12.3422,0.898046
12.3641,0.898006
12.3859,0.897966
12.4078,0.897927
12.4297,0.897888
12.4516,0.897849
12.4735,0.89781
12.4954,0.897772
12.5172,0.897733
12.5391,0.897695
12.561,0.897657
12.5829,0.89762
12.6048,0.897582
12.6267,0.897545
12.6485,0.897508
12.6704,0.897471
12.6923,0.897434
12.7142,0.897398
12.7361,0.897362
12.758,0.897326
12.7798,0.89729
12.8017,0.897254
12.8236,0.897219
12.8455,0.897183
12.8674,0.897148
12.8893,0.897113
12.9111,0.897079
12.933,0.897044
12.9549,0.89701
12.9768,0.896975
12.9987,0.896941
13.0206,0.896908
13.0424,0.896874
13.0643,0.896887
13.0862,0.896907
13.1081,0.896926
13.13,0.896942
13.1518,0.896955
13.1737,0.896966
13.1956,0.896974
13.2175,0.896981
13.2394,0.896985
13.2613,0.896987
13.2831,0.896986
13.305,0.896982
13.3269,0.896977
13.3488,0.89697
13.3707,0.896962
13.3926,0.896953
13.4144,0.896945
13.4363,0.896935
13.4582,0.896923
13.4801,0.896911
13.502,0.896899
13.5239,0.896889
13.5457,0.896878
13.5676,0.896867
13.5895,0.896857
13.6114,0.896846
13.6333,0.896833
13.6552,0.896819
13.677,0.896803
13.6989,0.896785
13.7208,0.896765
13.7427,0.896744
13.7646,0.896723
13.7865,0.896702
13.8083,0.89668
13.8302,0.896657
13.8521,0.896635
13.874,0.896612
13.8959,0.89659
13.9178,0.896566
13.9396,0.896542
13.9615,0.896516
13.9834,0.896488
14.0053,0.89646
14.0272,0.89643
14.0491,0.8964
14.0709,0.896367
14.0928,0.896333
14.1147,0.896297
14.1366,0.89626
14.1585,0.896222
14.1804,0.896184
14.2022,0.896147
14.2241,0.896109
14.246,0.896073
14.2679,0.896037
14.2898,0.896001
14.3117,0.895966
14.3335,0.895932
14.3554,0.895897
14.3773,0.895862
14.3992,0.895826
14.4211,0.895791
14.443,0.895755
14.4648,0.895719
14.4867,0.895682
14.5086,0.895644
14.5305,0.895606
14.5524,0.89557
14.5743,0.895536
14.5961,0.895505
14.618,0.895474
14.6399,0.895441
14.6618,0.895407
14.6837,0.895372
14.7056,0.895338
14.7274,0.895303
14.7493,0.895268
14.7712,0.895233
14.7931,0.895198
14.815,0.895162
14.8369,0.895125
14.8587,0.895089
14.8806,0.895053
14.9025,0.895017
14.9244,0.894981
14.9463,0.894945
14.9682,0.894909
14.99,0.894874
15.0119,0.894839
15.0338,0.894804
15.0557,0.894768
15.0776,0.894733
15.0995,0.894698
15.1213,0.894663
15.1432,0.894628
15.1651,0.894593
15.187,0.894559
15.2089,0.894524
15.2308,0.894489
15.2526,0.894455
15.2745,0.894421
15.2964,0.894385
15.3183,0.894349
15.3402,0.894312
15.3621,0.894276
15.3839,0.89424
15.4058,0.894203
15.4277,0.894166
15.4496,0.89413
15.4715,0.894093
15.4934,0.894056
15.5152,0.89402
15.5371,0.893984
15.559,0.893947
15.5809,0.893912
15.6028,0.893876
15.6247,0.89384
15.6465,0.893805
15.6684,0.893769
15.6903,0.893732
15.7122,0.893694
15.7341,0.893656
15.756,0.893618
15.7778,0.89358
15.7997,0.893543
15.8216,0.893505
15.8435,0.893467
15.8654,0.893429
15.8873,0.893391
15.9091,0.893353
15.931,0.893314
15.9529,0.893276
15.9748,0.893237
15.9967,0.893198
16.0186,0.893158
16.0404,0.893118
16.0623,0.893077
16.0842,0.893037
16.1061,0.892996
16.128,0.892955
16.1499,0.892914
16.1717,0.892872
16.1936,0.892831
16.2155,0.892789
16.2374,0.892747
16.2593,0.892705
16.2812,0.89266
16.303,0.892618
16.3249,0.892574
16.3468,0.892531
16.3687,0.892488
16.3906,0.892446
16.4125,0.892406
16.4343,0.892366
16.4562,0.892326
16.4781,0.892285
16.5,0.892245
16.5219,0.892206
16.5438,0.892165
16.5656,0.892123
16.5875,0.89208
16.6094,0.892037
16.6313,0.891994
16.6532,0.891951
16.6751,0.891907
16.6969,0.891864
16.7188,0.89182
16.7407,0.891775
16.7626,0.891729
16.7845,0.891682
16.8064,0.891634
16.8282,0.891586
16.8501,0.891538
16.872,0.891489
16.8939,0.89144
16.9158,0.891391
16.9377,0.891342
16.9595,0.891293
16.9814,0.891244
17.0033,0.891196
17.0252,0.891147
17.0471,0.8911
17.069,0.891052
17.0908,0.891004
17.1127,0.890955
17.1346,0.890907
17.1565,0.890858
17.1784,0.890809
17.2003,0.890759
17.2221,0.890709
17.244,0.890659
17.2659,0.890608
17.2878,0.890557
17.3097,0.890506
17.3316,0.890454
17.3534,0.890402
17.3753,0.89035
17.3972,0.890297
17.4191,0.890245
17.441,0.890192
17.4629,0.890139
17.4847,0.890086
17.5066,0.890032
17.5285,0.889978
17.5504,0.889924
17.5723,0.88987
17.5942,0.889815
17.616,0.889761
17.6379,0.889707
17.6598,0.889653
17.6817,0.8896
17.7036,0.889546
17.7255,0.889493
17.7473,0.889438
17.7692,0.889384
17.7911,0.88933
17.813,0.889277
17.8349,0.889224
17.8568,0.889171
17.8786,0.889118
17.9005,0.889065
17.9224,0.889011
17.9443,0.888958
17.9662,0.888904
17.9881,0.88885
18.0099,0.888796
18.0318,0.888741
18.0537,0.888687
18.0756,0.888632
18.0975,0.888577
18.1194,0.888522
18.1412,0.888466
18.1631,0.88841
18.185,0.888354
18.2069,0.888299
18.2288,0.888243
18.2507,0.888187
18.2725,0.888131
18.2944,0.888076
18.3163,0.888019
18.3382,0.887963
18.3601,0.887906
18.382,0.887849
18.4038,0.887792
18.4257,0.887735
18.4476,0.887678
18.4695,0.887621
18.4914,0.887564
18.5133,0.887507
18.5351,0.887449
18.557,0.887392
18.5789,0.887334
18.6008,0.887277
18.6227,0.887219
18.6446,0.887161
18.6664,0.887104
18.6883,0.887045
18.7102,0.886987
18.7321,0.886929
18.754,0.886871
18.7759,0.886812
18.7977,0.886754
18.8196,0.886695
18.8415,0.886636
18.8634,0.886578
18.8853,0.886519
18.9072,0.88646
18.929,0.886401
18.9509,0.886341
18.9728,0.886282
18.9947,0.886223
19.0166,0.886163
19.0385,0.886104
19.0603,0.886044
19.0822,0.885984
19.1041,0.885924
19.126,0.885865
19.1479,0.885805
19.1698,0.885745
19.1916,0.885684
19.2135,0.885624
19.2354,0.885564
19.2573,0.885504
19.2792,0.885443
19.3011,0.885382
19.3229,0.885322
19.3448,0.885261
19.3667,0.8852
19.3886,0.88514
19.4105,0.885079
19.4324,0.885019
19.4542,0.884958
19.4761,0.884898
19.498,0.884837
19.5199,0.884777
19.5418,0.884716
19.5636,0.884656
19.5855,0.884595
19.6074,0.884535
19.6293,0.884476
19.6512,0.884418
19.6731,0.884363
19.6949,0.884309
19.7168,0.884256
19.7387,0.8842
19.7606,0.884143
19.7825,0.884086
19.8044,0.884028
19.8262,0.88397
19.8481,0.883912
19.87,0.883854
19.8919,0.883796
19.9138,0.883738
19.9357,0.883679
19.9575,0.883621
19.9794,0.883563
20.0013,0.883505
20.0232,0.883447
20.0451,0.883389
20.067,0.883331
20.0888,0.883273
20.1107,0.883215
20.1326,0.883157
20.1545,0.883099
20.1764,0.883041
20.1983,0.882984
20.2201,0.882926
20.242,0.882868
20.2639,0.882811
20.2858,0.882753
20.3077,0.882696
20.3296,0.882638
20.3514,0.882581
20.3733,0.882524
20.3952,0.882467
20.4171,0.882409
20.439,0.882352
20.4609,0.882295
20.4827,0.882237
20.5046,0.88218
20.5265,0.882123
20.5484,0.882065
20.5703,0.882008
20.5922,0.881951
20.614,0.881894
20.6359,0.881837
20.6578,0.881779
20.6797,0.881722
20.7016,0.881665
20.7235,0.881607
20.7453,0.88155
20.7672,0.881493
20.7891,0.881435
20.811,0.881378
20.8329,0.88132
20.8548,0.881262
20.8766,0.881204
20.8985,0.881145
20.9204,0.881087
20.9423,0.881028
20.9642,0.88097
20.9861,0.880911
21.0079,0.880851
21.0298,0.880792
21.0517,0.880733
21.0736,0.880673
21.0955,0.880614
21.1174,0.880554
21.1392,0.880494
21.1611,0.880435
21.183,0.880376
21.2049,0.880316
21.2268,0.880256
21.2487,0.880196
21.2705,0.880135
21.2924,0.880074
21.3143,0.880012
21.3362,0.87995
21.3581,0.879888
21.38,0.879826
21.4018,0.879764
21.4237,0.879701
21.4456,0.879639
21.4675,0.879575
21.4894,0.879512
21.5113,0.879448
21.5331,0.879384
21.555,0.879319
21.5769,0.879255
21.5988,0.87919
21.6207,0.879124
21.6426,0.879058
21.6644,0.878991
21.6863,0.878924
21.7082,0.878855
21.7301,0.878785
21.752,0.878714
21.7739,0.878643
21.7957,0.878572
21.8176,0.878501
21.8395,0.878429
21.8614,0.878357
21.8833,0.878285
21.9052,0.878212
21.927,0.87814
21.9489,0.878067
21.9708,0.877994
21.9927,0.877922
22.0146,0.877849
22.0365,0.877776
22.0583,0.877703
22.0802,0.87763
22.1021,0.877556
22.124,0.877483
22.1459,0.87741
22.1678,0.877337
22.1896,0.877264
22.2115,0.877191
22.2334,0.877117
22.2553,0.877043
22.2772,0.876969
22.2991,0.876896
22.3209,0.876822
22.3428,0.876748
22.3647,0.876674
22.3866,0.8766
22.4085,0.876527
22.4304,0.876454
22.4522,0.876381
22.4741,0.876309
22.496,0.876237
22.5179,0.876166
22.5398,0.876096
22.5617,0.876027
22.5835,0.875958
22.6054,0.875891
22.6273,0.875823
22.6492,0.875756
22.6711,0.875689
22.693,0.875622
22.7148,0.875556
22.7367,0.875489
22.7586,0.875423
22.7805,0.875357
22.8024,0.875291
22.8243,0.875226
22.8461,0.875161
22.868,0.875095
22.8899,0.87503
22.9118,0.874965
22.9337,0.8749
22.9556,0.874836
22.9774,0.874771
22.9993,0.874707
23.0212,0.874643
23.0431,0.874578
23.065,0.874514
23.0869,0.874451
23.1087,0.874387
23.1306,0.874323
23.1525,0.87426
23.1744,0.874197
23.1963,0.874133
23.2182,0.87407
23.24,0.874007
23.2619,0.873945
23.2838,0.873882
23.3057,0.873819
23.3276,0.873757
23.3495,0.873695
23.3713,0.873633
23.3932,0.87357
23.4151,0.873507
23.437,0.873444
23.4589,0.873381
23.4808,0.873317
23.5026,0.873253
23.5245,0.873189
23.5464,0.873125
23.5683,0.873061
23.5902,0.872997
23.6121,0.872933
23.6339,0.872869
23.6558,0.872806
23.6777,0.872743
23.6996,0.872681
23.7215,0.872619
23.7434,0.872556
23.7652,0.872493
23.7871,0.87243
23.809,0.872368
23.8309,0.872305
23.8528,0.872243
23.8747,0.87218
23.8965,0.872118
23.9184,0.872055
23.9403,0.871992
23.9622,0.871929
23.9841,0.871865
24.006,0.871801
24.0278,0.871738
24.0497,0.871674
24.0716,0.871611
24.0935,0.871547
24.1154,0.871482
24.1373,0.871417
24.1591,0.871351
24.181,0.871285
24.2029,0.871219
24.2248,0.871153
24.2467,0.871088
24.2686,0.871022
24.2904,0.870956
24.3123,0.87089
24.3342,0.870824
24.3561,0.870758
24.378,0.870692
24.3999,0.870625
24.4217,0.870557
24.4436,0.870489
24.4655,0.870419
24.4874,0.87035
24.5093,0.870281
24.5312,0.870211
24.553,0.870142
24.5749,0.870073
24.5968,0.870004
24.6187,0.869935
24.6406,0.869866
24.6625,0.869796
24.6843,0.869727
24.7062,0.869658
24.7281,0.869591
24.75,0.869524
24.7719,0.869456
24.7938,0.869387
24.8156,0.869317
24.8375,0.869248
24.8594,0.869179
24.8813,0.869111
24.9032,0.869043
24.9251,0.868974
24.9469,0.868905
24.9688,0.868835
24.9907,0.868766
25.0126,0.868696
25.0345,0.868626
25.0564,0.868556
25.0782,0.868485
25.1001,0.868414
25.122,0.868343
25.1439,0.868272
25.1658,0.868201
25.1877,0.868129
25.2095,0.868057
25.2314,0.867986
25.2533,0.867914
25.2752,0.867842
25.2971,0.86777
25.319,0.867698
25.3408,0.867626
25.3627,0.867554
25.3846,0.867482
25.4065,0.86741
25.4284,0.867337
25.4503,0.867264
25.4721,0.867191
25.494,0.867118
25.5159,0.867044
25.5378,0.86697
25.5597,0.866896
25.5816,0.866822
25.6034,0.866747
25.6253,0.866673
25.6472,0.866598
25.6691,0.866523
25.691,0.866449
25.7129,0.866374
25.7347,0.8663
25.7566,0.866226
25.7785,0.866152
25.8004,0.866077
25.8223,0.866002
25.8442,0.865927
25.866,0.865852
25.8879,0.865777
25.9098,0.865702
25.9317,0.865626
25.9536,0.865549
25.9755,0.865473
25.9973,0.865397
26.0192,0.86532
26.0411,0.865244
26.063,0.865167
26.0849,0.86509
26.1067,0.865013
26.1286,0.864937
26.1505,0.86486
26.1724,0.864783
26.1943,0.864706
26.2162,0.864629
26.238,0.864552
26.2599,0.864474
26.2818,0.864395
26.3037,0.864316
26.3256,0.864236
26.3475,0.864155
26.3693,0.864073
26.3912,0.863991
26.4131,0.863908
26.435,0.863824
26.4569,0.863739
26.4788,0.863654
26.5006,0.863569
26.5225,0.863483
26.5444,0.863397
26.5663,0.863309
26.5882,0.863219
26.6101,0.863126
26.6319,0.863029
26.6538,0.862936
26.6757,0.862844
26.6976,0.862754
26.7195,0.862663
26.7414,0.862574
26.7632,0.862486
26.7851,0.862398
26.807,0.862311
26.8289,0.862223
26.8508,0.862136
26.8727,0.862049
26.8945,0.861961
26.9164,0.861874
26.9383,0.861786
26.9602,0.861696
26.9821,0.861606
27.004,0.861517
27.0258,0.86143
27.0477,0.861342
27.0696,0.861254
27.0915,0.861166
27.1134,0.861078
27.1353,0.860989
27.1571,0.8609
27.179,0.860812
27.2009,0.860723
27.2228,0.860633
27.2447,0.860542
27.2666,0.860449
27.2884,0.860349
27.3103,0.860248
27.3322,0.860147
27.3541,0.860046
27.376,0.859946
27.3979,0.859845
27.4197,0.859744
27.4416,0.859645
27.4635,0.859547
27.4854,0.859451
27.5073,0.859355
27.5292,0.859259
27.551,0.859163
27.5729,0.859066
27.5948,0.858968
27.6167,0.85887
27.6386,0.858771
27.6605,0.858671
27.6823,0.858572
27.7042,0.858474
27.7261,0.858377
27.748,0.85828
27.7699,0.858183
27.7918,0.858087
27.8136,0.857992
27.8355,0.857896
27.8574,0.8578
27.8793,0.857704
27.9012,0.857609
27.9231,0.857513
27.9449,0.857417
27.9668,0.857321
27.9887,0.857224
28.0106,0.857126
28.0325,0.857027
28.0544,0.856928
28.0762,0.856828
28.0981,0.856727
28.12,0.856624
28.1419,0.856523
28.1638,0.856421
28.1857,0.856318
28.2075,0.856216
28.2294,0.856115
28.2513,0.856015
28.2732,0.855915
28.2951,0.855817
28.317,0.855718
28.3388,0.855618
28.3607,0.855519
28.3826,0.855418
28.4045,0.855318
28.4264,0.855217
28.4483,0.855115
28.4701,0.855011
28.492,0.854907
28.5139,0.854803
28.5358,0.854698
28.5577,0.854592
28.5796,0.854486
28.6014,0.854381
28.6233,0.854275
28.6452,0.854168
28.6671,0.854061
28.689,0.853954
28.7109,0.853846
28.7327,0.853738
28.7546,0.853629
28.7765,0.85352
28.7984,0.853411
28.8203,0.853302
28.8422,0.853193
28.864,0.853083
28.8859,0.852972
28.9078,0.85286
28.9297,0.852747
28.9516,0.852634
28.9735,0.85252
28.9953,0.852406
29.0172,0.852293
29.0391,0.852179
29.061,0.852065
29.0829,0.85195
29.1048,0.851834
29.1266,0.851717
29.1485,0.8516
29.1704,0.851482
29.1923,0.851364
29.2142,0.851245
29.2361,0.851128
29.2579,0.85101
29.2798,0.850891
29.3017,0.850771
29.3236,0.85065
29.3455,0.850526
29.3674,0.8504
29.3892,0.850271
29.4111,0.850133
29.433,0.849997
29.4549,0.849862
29.4768,0.849729
29.4987,0.849599
29.5205,0.849469
29.5424,0.849341
29.5643,0.849214
29.5862,0.849088
29.6081,0.848964
29.63,0.848841
29.6518,0.848718
29.6737,0.848595
29.6956,0.848471
29.7175,0.848347
29.7394,0.848222
29.7613,0.848095
29.7831,0.847967
29.805,0.847839
29.8269,0.847707
29.8488,0.847574
29.8707,0.84744
29.8926,0.847307
29.9144,0.847172
29.9363,0.847037
29.9582,0.846901
29.9801,0.846763
30.002,0.846625
30.0239,0.846485
30.0457,0.846343
30.0676,0.8462
30.0895,0.846055
30.1114,0.845908
30.1333,0.845759
30.1552,0.845609
30.177,0.845458
30.1989,0.845306
30.2208,0.845154
30.2427,0.845002
30.2646,0.844849
30.2865,0.844695
30.3083,0.84454
30.3302,0.844385
30.3521,0.844229
30.374,0.844071
30.3959,0.843913
30.4178,0.843752
30.4396,0.843589
30.4615,0.843425
30.4834,0.843259
30.5053,0.843091
30.5272,0.842922
30.5491,0.842754
30.5709,0.842586
30.5928,0.842418
30.6147,0.84225
30.6366,0.842081
30.6585,0.841913
30.6804,0.841746
30.7022,0.841578
30.7241,0.84141
30.746,0.841241
30.7679,0.84107
30.7898,0.840899
30.8117,0.840726
30.8335,0.840551
30.8554,0.840375
30.8773,0.840199
30.8992,0.840021
30.9211,0.839842
30.943,0.839662
30.9648,0.839482
30.9867,0.8393
31.0086,0.839118
31.0305,0.838935
31.0524,0.838751
31.0743,0.838566
31.0961,0.83838
31.118,0.838193
31.1399,0.838006
31.1618,0.837817
31.1837,0.837626
31.2056,0.837433
31.2274,0.837237
31.2493,0.837039
31.2712,0.836843
31.2931,0.836645
31.315,0.836448
31.3369,0.836249
31.3587,0.836048
31.3806,0.835845
31.4025,0.835641
31.4244,0.835433
31.4463,0.835223
31.4682,0.835012
31.49,0.834803
31.5119,0.834592
31.5338,0.83438
31.5557,0.834166
31.5776,0.833951
31.5995,0.833734
31.6213,0.833515
31.6432,0.833293
31.6651,0.83307
31.687,0.832845
31.7089,0.832619
31.7308,0.832392
31.7526,0.832164
31.7745,0.831935
31.7964,0.831705
31.8183,0.831475
31.8402,0.831244
31.8621,0.831012
31.8839,0.830778
31.9058,0.830542
31.9277,0.830304
31.9496,0.830063
31.9715,0.829819
31.9934,0.829575
32.0152,0.829329
32.0371,0.82908
32.059,0.828827
32.0809,0.828572
32.1028,0.828313
32.1247,0.828053
32.1465,0.827792
32.1684,0.827532
32.1903,0.82727
32.2122,0.827007
32.2341,0.826743
32.256,0.826476
32.2778,0.826208
32.2997,0.825938
32.3216,0.825666
32.3435,0.825394
32.3654,0.82512
32.3873,0.824845
32.4091,0.824568
32.431,0.824289
32.4529,0.824008
32.4748,0.823726
32.4967,0.823443
32.5186,0.823159
32.5404,0.822872
32.5623,0.822584
32.5842,0.822293
32.6061,0.822001
32.628,0.821705
32.6498,0.821408
32.6717,0.821109
32.6919,0.820832